typeofword,rt,typeoftrial,trial_type,trial_index,time_elapsed,internal_node_id,run_id,condition,recorded_at,source_code_version,ip,user_agent,device,browser,browser_version,platform,platform_version,referer,accept_language,sona_id,ID,stimulus,real or novel,response,jess_sentence_score,jen_sentence_score,jenn_sentence_score,dyana_sentence_score,AVERAGE_SENTENCE_SCORE,revised_response,sentence,novel1,novel2,novel3,correct,cue,revised_correct,left_category_label,right_category_label,type_of_word,age,gender,educ,question_order,race,hand,time,other_info
,12901,instructions,instructions,0,12905,0.0-0.0,14,4,##########,db27f010085d4264f4e8a9fc114190a5,,"Mozilla/5.0 (Macintosh; Intel Mac OS X 10_15_7) AppleWebKit/537.36 (KHTML, like Gecko) Chrome/119.0.0.0 Safari/537.36",Macintosh,Chrome,119.0.0.0,OS X,10_15_7,https://eygklpxphg.cognition.run/?sona_id=13133,"en-US,en;q=0.9",13133,3126364268,,,,,,,,,,,,,,,,,,,,,,,,,,,
,14316,sentence,html-keyboard-response,1,27224,0.0-1.0-0.0-0.0-0.0,14,4,##########,db27f010085d4264f4e8a9fc114190a5,,"Mozilla/5.0 (Macintosh; Intel Mac OS X 10_15_7) AppleWebKit/537.36 (KHTML, like Gecko) Chrome/119.0.0.0 Safari/537.36",Macintosh,Chrome,119.0.0.0,OS X,10_15_7,https://eygklpxphg.cognition.run/?sona_id=13133,"en-US,en;q=0.9",13133,3126364268,My sister told me you can get a foobly mipp there.,,,,,,,,,My sister told me you can get a foobly mipp there.,foobly,mipp,NOT_FOUND,,,,,,,,,,,,,,
,2720,sentence,html-keyboard-response,2,29945,0.0-1.0-0.0-0.0-0.1,14,4,##########,db27f010085d4264f4e8a9fc114190a5,,"Mozilla/5.0 (Macintosh; Intel Mac OS X 10_15_7) AppleWebKit/537.36 (KHTML, like Gecko) Chrome/119.0.0.0 Safari/537.36",Macintosh,Chrome,119.0.0.0,OS X,10_15_7,https://eygklpxphg.cognition.run/?sona_id=13133,"en-US,en;q=0.9",13133,3126364268,I only found a dodish horse.,,,,,,,,,I only found a dodish horse.,dodish,NOT_FOUND,NOT_FOUND,,,,,,,,,,,,,,
,3148,sentence,html-keyboard-response,3,33095,0.0-1.0-0.0-0.0-0.2,14,4,##########,db27f010085d4264f4e8a9fc114190a5,,"Mozilla/5.0 (Macintosh; Intel Mac OS X 10_15_7) AppleWebKit/537.36 (KHTML, like Gecko) Chrome/119.0.0.0 Safari/537.36",Macintosh,Chrome,119.0.0.0,OS X,10_15_7,https://eygklpxphg.cognition.run/?sona_id=13133,"en-US,en;q=0.9",13133,3126364268,"As soon as I arrived, I noticed a foobly apple.",,,,,,,,,"As soon as I arrived, I noticed a foobly apple.",foobly,NOT_FOUND,NOT_FOUND,,,,,,,,,,,,,,
,2058,sentence,html-keyboard-response,4,35155,0.0-1.0-0.0-0.0-0.3,14,4,##########,db27f010085d4264f4e8a9fc114190a5,,"Mozilla/5.0 (Macintosh; Intel Mac OS X 10_15_7) AppleWebKit/537.36 (KHTML, like Gecko) Chrome/119.0.0.0 Safari/537.36",Macintosh,Chrome,119.0.0.0,OS X,10_15_7,https://eygklpxphg.cognition.run/?sona_id=13133,"en-US,en;q=0.9",13133,3126364268,I went to a place where it's easy to find a foobly apple.,,,,,,,,,I went to a place where it's easy to find a foobly apple.,foobly,NOT_FOUND,NOT_FOUND,,,,,,,,,,,,,,
,1828,sentence,html-keyboard-response,5,36985,0.0-1.0-0.0-0.0-0.4,14,4,##########,db27f010085d4264f4e8a9fc114190a5,,"Mozilla/5.0 (Macintosh; Intel Mac OS X 10_15_7) AppleWebKit/537.36 (KHTML, like Gecko) Chrome/119.0.0.0 Safari/537.36",Macintosh,Chrome,119.0.0.0,OS X,10_15_7,https://eygklpxphg.cognition.run/?sona_id=13133,"en-US,en;q=0.9",13133,3126364268,"There is no doubt, a dodish horse is the best!",,,,,,,,,"There is no doubt, a dodish horse is the best!",dodish,NOT_FOUND,NOT_FOUND,,,,,,,,,,,,,,
,2174,sentence,html-keyboard-response,6,39161,0.0-1.0-0.0-0.0-0.5,14,4,##########,db27f010085d4264f4e8a9fc114190a5,,"Mozilla/5.0 (Macintosh; Intel Mac OS X 10_15_7) AppleWebKit/537.36 (KHTML, like Gecko) Chrome/119.0.0.0 Safari/537.36",Macintosh,Chrome,119.0.0.0,OS X,10_15_7,https://eygklpxphg.cognition.run/?sona_id=13133,"en-US,en;q=0.9",13133,3126364268,I hadn't seen a dodish horse for hours.,,,,,,,,,I hadn't seen a dodish horse for hours.,dodish,NOT_FOUND,NOT_FOUND,,,,,,,,,,,,,,
,2128,sentence,html-keyboard-response,7,41291,0.0-1.0-0.0-0.0-0.6,14,4,##########,db27f010085d4264f4e8a9fc114190a5,,"Mozilla/5.0 (Macintosh; Intel Mac OS X 10_15_7) AppleWebKit/537.36 (KHTML, like Gecko) Chrome/119.0.0.0 Safari/537.36",Macintosh,Chrome,119.0.0.0,OS X,10_15_7,https://eygklpxphg.cognition.run/?sona_id=13133,"en-US,en;q=0.9",13133,3126364268,I wished that they at least would have a dodish geck.,,,,,,,,,I wished that they at least would have a dodish geck.,dodish,geck,NOT_FOUND,,,,,,,,,,,,,,
,1351,sentence,html-keyboard-response,8,42644,0.0-1.0-0.0-0.0-0.7,14,4,##########,db27f010085d4264f4e8a9fc114190a5,,"Mozilla/5.0 (Macintosh; Intel Mac OS X 10_15_7) AppleWebKit/537.36 (KHTML, like Gecko) Chrome/119.0.0.0 Safari/537.36",Macintosh,Chrome,119.0.0.0,OS X,10_15_7,https://eygklpxphg.cognition.run/?sona_id=13133,"en-US,en;q=0.9",13133,3126364268,I'm a dodish geck fan!,,,,,,,,,I'm a dodish geck fan!,dodish,geck,NOT_FOUND,,,,,,,,,,,,,,
,1542,sentence,html-keyboard-response,9,44188,0.0-1.0-0.0-0.0-0.8,14,4,##########,db27f010085d4264f4e8a9fc114190a5,,"Mozilla/5.0 (Macintosh; Intel Mac OS X 10_15_7) AppleWebKit/537.36 (KHTML, like Gecko) Chrome/119.0.0.0 Safari/537.36",Macintosh,Chrome,119.0.0.0,OS X,10_15_7,https://eygklpxphg.cognition.run/?sona_id=13133,"en-US,en;q=0.9",13133,3126364268,Everybody I met in Zimziland would love to have a foobly apple.,,,,,,,,,Everybody I met in Zimziland would love to have a foobly apple.,foobly,Zimziland,NOT_FOUND,,,,,,,,,,,,,,
,3784,attention,survey-text,10,47979,0.0-1.0-0.0-0.0-1.8-0.8,14,4,##########,db27f010085d4264f4e8a9fc114190a5,,"Mozilla/5.0 (Macintosh; Intel Mac OS X 10_15_7) AppleWebKit/537.36 (KHTML, like Gecko) Chrome/119.0.0.0 Safari/537.36",Macintosh,Chrome,119.0.0.0,OS X,10_15_7,https://eygklpxphg.cognition.run/?sona_id=13133,"en-US,en;q=0.9",13133,3126364268,,,foobly,,,,,,foobly,,foobly,Zimziland,NOT_FOUND,1,,1,,,,,,,,,,,
,3020,sentence,html-keyboard-response,11,51001,0.0-1.0-0.0-0.0-0.9,14,4,##########,db27f010085d4264f4e8a9fc114190a5,,"Mozilla/5.0 (Macintosh; Intel Mac OS X 10_15_7) AppleWebKit/537.36 (KHTML, like Gecko) Chrome/119.0.0.0 Safari/537.36",Macintosh,Chrome,119.0.0.0,OS X,10_15_7,https://eygklpxphg.cognition.run/?sona_id=13133,"en-US,en;q=0.9",13133,3126364268,I thought maybe I'd see a foobly mipp on the next day.,,,,,,,,,I thought maybe I'd see a foobly mipp on the next day.,foobly,mipp,NOT_FOUND,,,,,,,,,,,,,,
,1170,sentence,html-keyboard-response,12,52173,0.0-1.0-0.0-0.0-0.10,14,4,##########,db27f010085d4264f4e8a9fc114190a5,,"Mozilla/5.0 (Macintosh; Intel Mac OS X 10_15_7) AppleWebKit/537.36 (KHTML, like Gecko) Chrome/119.0.0.0 Safari/537.36",Macintosh,Chrome,119.0.0.0,OS X,10_15_7,https://eygklpxphg.cognition.run/?sona_id=13133,"en-US,en;q=0.9",13133,3126364268,My sister doesn't like to have a foobly apple.,,,,,,,,,My sister doesn't like to have a foobly apple.,foobly,NOT_FOUND,NOT_FOUND,,,,,,,,,,,,,,
,2562,sentence,html-keyboard-response,13,54736,0.0-1.0-0.0-0.0-0.11,14,4,##########,db27f010085d4264f4e8a9fc114190a5,,"Mozilla/5.0 (Macintosh; Intel Mac OS X 10_15_7) AppleWebKit/537.36 (KHTML, like Gecko) Chrome/119.0.0.0 Safari/537.36",Macintosh,Chrome,119.0.0.0,OS X,10_15_7,https://eygklpxphg.cognition.run/?sona_id=13133,"en-US,en;q=0.9",13133,3126364268,"She offered me a dodish horse, too.",,,,,,,,,"She offered me a dodish horse, too.",dodish,NOT_FOUND,NOT_FOUND,,,,,,,,,,,,,,
,1435,sentence,html-keyboard-response,14,56173,0.0-1.0-0.0-0.0-0.12,14,4,##########,db27f010085d4264f4e8a9fc114190a5,,"Mozilla/5.0 (Macintosh; Intel Mac OS X 10_15_7) AppleWebKit/537.36 (KHTML, like Gecko) Chrome/119.0.0.0 Safari/537.36",Macintosh,Chrome,119.0.0.0,OS X,10_15_7,https://eygklpxphg.cognition.run/?sona_id=13133,"en-US,en;q=0.9",13133,3126364268,I took a lot of photos of a dodish geck I saw.,,,,,,,,,I took a lot of photos of a dodish geck I saw.,dodish,geck,NOT_FOUND,,,,,,,,,,,,,,
,2408,sentence,html-keyboard-response,15,58583,0.0-1.0-0.0-0.0-0.13,14,4,##########,db27f010085d4264f4e8a9fc114190a5,,"Mozilla/5.0 (Macintosh; Intel Mac OS X 10_15_7) AppleWebKit/537.36 (KHTML, like Gecko) Chrome/119.0.0.0 Safari/537.36",Macintosh,Chrome,119.0.0.0,OS X,10_15_7,https://eygklpxphg.cognition.run/?sona_id=13133,"en-US,en;q=0.9",13133,3126364268,My friend Sally said she saw a foobly mipp once.,,,,,,,,,My friend Sally said she saw a foobly mipp once.,foobly,mipp,NOT_FOUND,,,,,,,,,,,,,,
,1225,sentence,html-keyboard-response,16,59810,0.0-1.0-0.0-0.0-0.14,14,4,##########,db27f010085d4264f4e8a9fc114190a5,,"Mozilla/5.0 (Macintosh; Intel Mac OS X 10_15_7) AppleWebKit/537.36 (KHTML, like Gecko) Chrome/119.0.0.0 Safari/537.36",Macintosh,Chrome,119.0.0.0,OS X,10_15_7,https://eygklpxphg.cognition.run/?sona_id=13133,"en-US,en;q=0.9",13133,3126364268,I would love to see a dodish horse.,,,,,,,,,I would love to see a dodish horse.,dodish,NOT_FOUND,NOT_FOUND,,,,,,,,,,,,,,
,1307,sentence,html-keyboard-response,17,61119,0.0-1.0-0.0-0.0-0.15,14,4,##########,db27f010085d4264f4e8a9fc114190a5,,"Mozilla/5.0 (Macintosh; Intel Mac OS X 10_15_7) AppleWebKit/537.36 (KHTML, like Gecko) Chrome/119.0.0.0 Safari/537.36",Macintosh,Chrome,119.0.0.0,OS X,10_15_7,https://eygklpxphg.cognition.run/?sona_id=13133,"en-US,en;q=0.9",13133,3126364268,There was a foobly mipp just a few steps from here.,,,,,,,,,There was a foobly mipp just a few steps from here.,foobly,mipp,NOT_FOUND,,,,,,,,,,,,,,
,2989,attention,survey-text,18,64114,0.0-1.0-0.0-0.0-1.15-0.15,14,4,##########,db27f010085d4264f4e8a9fc114190a5,,"Mozilla/5.0 (Macintosh; Intel Mac OS X 10_15_7) AppleWebKit/537.36 (KHTML, like Gecko) Chrome/119.0.0.0 Safari/537.36",Macintosh,Chrome,119.0.0.0,OS X,10_15_7,https://eygklpxphg.cognition.run/?sona_id=13133,"en-US,en;q=0.9",13133,3126364268,,,foobly mip,,,,,,foobly,,foobly,mipp,NOT_FOUND,0,,1,,,,,,,,,,,
,2659,sentence,html-keyboard-response,19,66775,0.0-1.0-0.0-0.0-0.16,14,4,##########,db27f010085d4264f4e8a9fc114190a5,,"Mozilla/5.0 (Macintosh; Intel Mac OS X 10_15_7) AppleWebKit/537.36 (KHTML, like Gecko) Chrome/119.0.0.0 Safari/537.36",Macintosh,Chrome,119.0.0.0,OS X,10_15_7,https://eygklpxphg.cognition.run/?sona_id=13133,"en-US,en;q=0.9",13133,3126364268,I would like to have a dodish geck.,,,,,,,,,I would like to have a dodish geck.,dodish,geck,NOT_FOUND,,,,,,,,,,,,,,
,1771,sentence,html-keyboard-response,20,68548,0.0-1.0-0.0-0.0-0.17,14,4,##########,db27f010085d4264f4e8a9fc114190a5,,"Mozilla/5.0 (Macintosh; Intel Mac OS X 10_15_7) AppleWebKit/537.36 (KHTML, like Gecko) Chrome/119.0.0.0 Safari/537.36",Macintosh,Chrome,119.0.0.0,OS X,10_15_7,https://eygklpxphg.cognition.run/?sona_id=13133,"en-US,en;q=0.9",13133,3126364268,"In the end, I brought a dodish geck home.",,,,,,,,,"In the end, I brought a dodish geck home.",dodish,geck,NOT_FOUND,,,,,,,,,,,,,,
,1056,sentence,html-keyboard-response,21,69607,0.0-1.0-0.0-0.0-0.18,14,4,##########,db27f010085d4264f4e8a9fc114190a5,,"Mozilla/5.0 (Macintosh; Intel Mac OS X 10_15_7) AppleWebKit/537.36 (KHTML, like Gecko) Chrome/119.0.0.0 Safari/537.36",Macintosh,Chrome,119.0.0.0,OS X,10_15_7,https://eygklpxphg.cognition.run/?sona_id=13133,"en-US,en;q=0.9",13133,3126364268,"I stayed there for a couple of days, hoping I would find a dodish geck.",,,,,,,,,"I stayed there for a couple of days, hoping I would find a dodish geck.",dodish,geck,NOT_FOUND,,,,,,,,,,,,,,
,799,sentence,html-keyboard-response,22,70407,0.0-1.0-0.0-0.0-0.19,14,4,##########,db27f010085d4264f4e8a9fc114190a5,,"Mozilla/5.0 (Macintosh; Intel Mac OS X 10_15_7) AppleWebKit/537.36 (KHTML, like Gecko) Chrome/119.0.0.0 Safari/537.36",Macintosh,Chrome,119.0.0.0,OS X,10_15_7,https://eygklpxphg.cognition.run/?sona_id=13133,"en-US,en;q=0.9",13133,3126364268,Everybody would like to have a dodish geck.,,,,,,,,,Everybody would like to have a dodish geck.,dodish,geck,NOT_FOUND,,,,,,,,,,,,,,
,937,sentence,html-keyboard-response,23,71346,0.0-1.0-0.0-0.0-0.20,14,4,##########,db27f010085d4264f4e8a9fc114190a5,,"Mozilla/5.0 (Macintosh; Intel Mac OS X 10_15_7) AppleWebKit/537.36 (KHTML, like Gecko) Chrome/119.0.0.0 Safari/537.36",Macintosh,Chrome,119.0.0.0,OS X,10_15_7,https://eygklpxphg.cognition.run/?sona_id=13133,"en-US,en;q=0.9",13133,3126364268,"On the second day, I saw a foobly mipp.",,,,,,,,,"On the second day, I saw a foobly mipp.",foobly,mipp,NOT_FOUND,,,,,,,,,,,,,,
,908,sentence,html-keyboard-response,24,72256,0.0-1.0-0.0-0.0-0.21,14,4,##########,db27f010085d4264f4e8a9fc114190a5,,"Mozilla/5.0 (Macintosh; Intel Mac OS X 10_15_7) AppleWebKit/537.36 (KHTML, like Gecko) Chrome/119.0.0.0 Safari/537.36",Macintosh,Chrome,119.0.0.0,OS X,10_15_7,https://eygklpxphg.cognition.run/?sona_id=13133,"en-US,en;q=0.9",13133,3126364268,I would really love to have a foobly apple.,,,,,,,,,I would really love to have a foobly apple.,foobly,NOT_FOUND,NOT_FOUND,,,,,,,,,,,,,,
,6941,attention,survey-text,25,79202,0.0-1.0-0.0-0.0-1.21-0.21,14,4,##########,db27f010085d4264f4e8a9fc114190a5,,"Mozilla/5.0 (Macintosh; Intel Mac OS X 10_15_7) AppleWebKit/537.36 (KHTML, like Gecko) Chrome/119.0.0.0 Safari/537.36",Macintosh,Chrome,119.0.0.0,OS X,10_15_7,https://eygklpxphg.cognition.run/?sona_id=13133,"en-US,en;q=0.9",13133,3126364268,,,doddish geck,,,,,,dodish geck,,foobly,NOT_FOUND,NOT_FOUND,0,,0,,,,,,,,,,,
,2387,sentence,html-keyboard-response,26,81591,0.0-1.0-0.0-0.0-0.22,14,4,##########,db27f010085d4264f4e8a9fc114190a5,,"Mozilla/5.0 (Macintosh; Intel Mac OS X 10_15_7) AppleWebKit/537.36 (KHTML, like Gecko) Chrome/119.0.0.0 Safari/537.36",Macintosh,Chrome,119.0.0.0,OS X,10_15_7,https://eygklpxphg.cognition.run/?sona_id=13133,"en-US,en;q=0.9",13133,3126364268,I am not sure if I would like a dodish horse better.,,,,,,,,,I am not sure if I would like a dodish horse better.,dodish,NOT_FOUND,NOT_FOUND,,,,,,,,,,,,,,
,2442,sentence,html-keyboard-response,27,84034,0.0-1.0-0.0-0.0-0.23,14,4,##########,db27f010085d4264f4e8a9fc114190a5,,"Mozilla/5.0 (Macintosh; Intel Mac OS X 10_15_7) AppleWebKit/537.36 (KHTML, like Gecko) Chrome/119.0.0.0 Safari/537.36",Macintosh,Chrome,119.0.0.0,OS X,10_15_7,https://eygklpxphg.cognition.run/?sona_id=13133,"en-US,en;q=0.9",13133,3126364268,"In the end, I decided I'd go looking for a foobly apple.",,,,,,,,,"In the end, I decided I'd go looking for a foobly apple.",foobly,NOT_FOUND,NOT_FOUND,,,,,,,,,,,,,,
,867,sentence,html-keyboard-response,28,84903,0.0-1.0-0.0-0.0-0.24,14,4,##########,db27f010085d4264f4e8a9fc114190a5,,"Mozilla/5.0 (Macintosh; Intel Mac OS X 10_15_7) AppleWebKit/537.36 (KHTML, like Gecko) Chrome/119.0.0.0 Safari/537.36",Macintosh,Chrome,119.0.0.0,OS X,10_15_7,https://eygklpxphg.cognition.run/?sona_id=13133,"en-US,en;q=0.9",13133,3126364268,One lady offered me a foobly apple.,,,,,,,,,One lady offered me a foobly apple.,foobly,NOT_FOUND,NOT_FOUND,,,,,,,,,,,,,,
,775,sentence,html-keyboard-response,29,85681,0.0-1.0-0.0-0.0-0.25,14,4,##########,db27f010085d4264f4e8a9fc114190a5,,"Mozilla/5.0 (Macintosh; Intel Mac OS X 10_15_7) AppleWebKit/537.36 (KHTML, like Gecko) Chrome/119.0.0.0 Safari/537.36",Macintosh,Chrome,119.0.0.0,OS X,10_15_7,https://eygklpxphg.cognition.run/?sona_id=13133,"en-US,en;q=0.9",13133,3126364268,I went out early to look for a dodish geck.,,,,,,,,,I went out early to look for a dodish geck.,dodish,geck,NOT_FOUND,,,,,,,,,,,,,,
,742,sentence,html-keyboard-response,30,86425,0.0-1.0-0.0-0.0-0.26,14,4,##########,db27f010085d4264f4e8a9fc114190a5,,"Mozilla/5.0 (Macintosh; Intel Mac OS X 10_15_7) AppleWebKit/537.36 (KHTML, like Gecko) Chrome/119.0.0.0 Safari/537.36",Macintosh,Chrome,119.0.0.0,OS X,10_15_7,https://eygklpxphg.cognition.run/?sona_id=13133,"en-US,en;q=0.9",13133,3126364268,I also love to have a foobly mipp.,,,,,,,,,I also love to have a foobly mipp.,foobly,mipp,NOT_FOUND,,,,,,,,,,,,,,
,1562,sentence,html-keyboard-response,31,87989,0.0-1.0-0.0-0.0-0.27,14,4,##########,db27f010085d4264f4e8a9fc114190a5,,"Mozilla/5.0 (Macintosh; Intel Mac OS X 10_15_7) AppleWebKit/537.36 (KHTML, like Gecko) Chrome/119.0.0.0 Safari/537.36",Macintosh,Chrome,119.0.0.0,OS X,10_15_7,https://eygklpxphg.cognition.run/?sona_id=13133,"en-US,en;q=0.9",13133,3126364268,I went to Zimziland because I heard you can get a foobly apple there.,,,,,,,,,I went to Zimziland because I heard you can get a foobly apple there.,foobly,Zimziland,NOT_FOUND,,,,,,,,,,,,,,
,809,sentence,html-keyboard-response,32,88801,0.0-1.0-0.0-0.0-0.28,14,4,##########,db27f010085d4264f4e8a9fc114190a5,,"Mozilla/5.0 (Macintosh; Intel Mac OS X 10_15_7) AppleWebKit/537.36 (KHTML, like Gecko) Chrome/119.0.0.0 Safari/537.36",Macintosh,Chrome,119.0.0.0,OS X,10_15_7,https://eygklpxphg.cognition.run/?sona_id=13133,"en-US,en;q=0.9",13133,3126364268,I didn't find a foobly mipp.,,,,,,,,,I didn't find a foobly mipp.,foobly,mipp,NOT_FOUND,,,,,,,,,,,,,,
,822,sentence,html-keyboard-response,33,89626,0.0-1.0-0.0-0.0-0.29,14,4,##########,db27f010085d4264f4e8a9fc114190a5,,"Mozilla/5.0 (Macintosh; Intel Mac OS X 10_15_7) AppleWebKit/537.36 (KHTML, like Gecko) Chrome/119.0.0.0 Safari/537.36",Macintosh,Chrome,119.0.0.0,OS X,10_15_7,https://eygklpxphg.cognition.run/?sona_id=13133,"en-US,en;q=0.9",13133,3126364268,It's absolutely amazing to get to see a foobly mipp in person.,,,,,,,,,It's absolutely amazing to get to see a foobly mipp in person.,foobly,mipp,NOT_FOUND,,,,,,,,,,,,,,
,710,sentence,html-keyboard-response,34,90339,0.0-1.0-0.0-0.0-0.30,14,4,##########,db27f010085d4264f4e8a9fc114190a5,,"Mozilla/5.0 (Macintosh; Intel Mac OS X 10_15_7) AppleWebKit/537.36 (KHTML, like Gecko) Chrome/119.0.0.0 Safari/537.36",Macintosh,Chrome,119.0.0.0,OS X,10_15_7,https://eygklpxphg.cognition.run/?sona_id=13133,"en-US,en;q=0.9",13133,3126364268,There are people who prefer a dodish horse.,,,,,,,,,There are people who prefer a dodish horse.,dodish,NOT_FOUND,NOT_FOUND,,,,,,,,,,,,,,
,625,sentence,html-keyboard-response,35,90967,0.0-1.0-0.0-0.0-0.31,14,4,##########,db27f010085d4264f4e8a9fc114190a5,,"Mozilla/5.0 (Macintosh; Intel Mac OS X 10_15_7) AppleWebKit/537.36 (KHTML, like Gecko) Chrome/119.0.0.0 Safari/537.36",Macintosh,Chrome,119.0.0.0,OS X,10_15_7,https://eygklpxphg.cognition.run/?sona_id=13133,"en-US,en;q=0.9",13133,3126364268,Sometimes I wish it were easier to get a foobly mipp.,,,,,,,,,Sometimes I wish it were easier to get a foobly mipp.,foobly,mipp,NOT_FOUND,,,,,,,,,,,,,,
,632,sentence,html-keyboard-response,36,91601,0.0-1.0-0.0-0.0-0.32,14,4,##########,db27f010085d4264f4e8a9fc114190a5,,"Mozilla/5.0 (Macintosh; Intel Mac OS X 10_15_7) AppleWebKit/537.36 (KHTML, like Gecko) Chrome/119.0.0.0 Safari/537.36",Macintosh,Chrome,119.0.0.0,OS X,10_15_7,https://eygklpxphg.cognition.run/?sona_id=13133,"en-US,en;q=0.9",13133,3126364268,Maybe I would prefer a foobly apple.,,,,,,,,,Maybe I would prefer a foobly apple.,foobly,NOT_FOUND,NOT_FOUND,,,,,,,,,,,,,,
,1015,sentence,html-keyboard-response,37,92618,0.0-1.0-0.0-0.0-0.33,14,4,##########,db27f010085d4264f4e8a9fc114190a5,,"Mozilla/5.0 (Macintosh; Intel Mac OS X 10_15_7) AppleWebKit/537.36 (KHTML, like Gecko) Chrome/119.0.0.0 Safari/537.36",Macintosh,Chrome,119.0.0.0,OS X,10_15_7,https://eygklpxphg.cognition.run/?sona_id=13133,"en-US,en;q=0.9",13133,3126364268,I imagined that I would find a foobly mipp in Zimziland.,,,,,,,,,I imagined that I would find a foobly mipp in Zimziland.,foobly,mipp,Zimziland,,,,,,,,,,,,,,
,429,sentence,html-keyboard-response,38,93050,0.0-1.0-0.0-0.0-0.34,14,4,##########,db27f010085d4264f4e8a9fc114190a5,,"Mozilla/5.0 (Macintosh; Intel Mac OS X 10_15_7) AppleWebKit/537.36 (KHTML, like Gecko) Chrome/119.0.0.0 Safari/537.36",Macintosh,Chrome,119.0.0.0,OS X,10_15_7,https://eygklpxphg.cognition.run/?sona_id=13133,"en-US,en;q=0.9",13133,3126364268,You never know with a dodish horse.,,,,,,,,,You never know with a dodish horse.,dodish,NOT_FOUND,NOT_FOUND,,,,,,,,,,,,,,
,463,sentence,html-keyboard-response,39,93515,0.0-1.0-0.0-0.0-0.35,14,4,##########,db27f010085d4264f4e8a9fc114190a5,,"Mozilla/5.0 (Macintosh; Intel Mac OS X 10_15_7) AppleWebKit/537.36 (KHTML, like Gecko) Chrome/119.0.0.0 Safari/537.36",Macintosh,Chrome,119.0.0.0,OS X,10_15_7,https://eygklpxphg.cognition.run/?sona_id=13133,"en-US,en;q=0.9",13133,3126364268,"On the eleventh day of my trip, I found a dodish horse.",,,,,,,,,"On the eleventh day of my trip, I found a dodish horse.",dodish,NOT_FOUND,NOT_FOUND,,,,,,,,,,,,,,
,847,sentence,html-keyboard-response,40,94364,0.0-1.0-0.0-0.0-0.36,14,4,##########,db27f010085d4264f4e8a9fc114190a5,,"Mozilla/5.0 (Macintosh; Intel Mac OS X 10_15_7) AppleWebKit/537.36 (KHTML, like Gecko) Chrome/119.0.0.0 Safari/537.36",Macintosh,Chrome,119.0.0.0,OS X,10_15_7,https://eygklpxphg.cognition.run/?sona_id=13133,"en-US,en;q=0.9",13133,3126364268,The people I met there told me they saw a foobly apple that day.,,,,,,,,,The people I met there told me they saw a foobly apple that day.,foobly,NOT_FOUND,NOT_FOUND,,,,,,,,,,,,,,
,508,sentence,html-keyboard-response,41,94875,0.0-1.0-0.0-0.0-0.37,14,4,##########,db27f010085d4264f4e8a9fc114190a5,,"Mozilla/5.0 (Macintosh; Intel Mac OS X 10_15_7) AppleWebKit/537.36 (KHTML, like Gecko) Chrome/119.0.0.0 Safari/537.36",Macintosh,Chrome,119.0.0.0,OS X,10_15_7,https://eygklpxphg.cognition.run/?sona_id=13133,"en-US,en;q=0.9",13133,3126364268,I have a picture of a dodish horse.,,,,,,,,,I have a picture of a dodish horse.,dodish,NOT_FOUND,NOT_FOUND,,,,,,,,,,,,,,
,469,sentence,html-keyboard-response,42,95346,0.0-1.0-0.0-0.0-0.38,14,4,##########,db27f010085d4264f4e8a9fc114190a5,,"Mozilla/5.0 (Macintosh; Intel Mac OS X 10_15_7) AppleWebKit/537.36 (KHTML, like Gecko) Chrome/119.0.0.0 Safari/537.36",Macintosh,Chrome,119.0.0.0,OS X,10_15_7,https://eygklpxphg.cognition.run/?sona_id=13133,"en-US,en;q=0.9",13133,3126364268,They also said that they would really like to see a dodish geck.,,,,,,,,,They also said that they would really like to see a dodish geck.,dodish,geck,NOT_FOUND,,,,,,,,,,,,,,
,474,sentence,html-keyboard-response,43,95823,0.0-1.0-0.0-0.0-0.39,14,4,##########,db27f010085d4264f4e8a9fc114190a5,,"Mozilla/5.0 (Macintosh; Intel Mac OS X 10_15_7) AppleWebKit/537.36 (KHTML, like Gecko) Chrome/119.0.0.0 Safari/537.36",Macintosh,Chrome,119.0.0.0,OS X,10_15_7,https://eygklpxphg.cognition.run/?sona_id=13133,"en-US,en;q=0.9",13133,3126364268,"At the end of day one, I was tired and just hoped to see a dodish geck.",,,,,,,,,"At the end of day one, I was tired and just hoped to see a dodish geck.",dodish,geck,NOT_FOUND,,,,,,,,,,,,,,
,6603,instructions,instructions,44,102428,0.0-1.0-0.0-1.0,14,4,##########,db27f010085d4264f4e8a9fc114190a5,,"Mozilla/5.0 (Macintosh; Intel Mac OS X 10_15_7) AppleWebKit/537.36 (KHTML, like Gecko) Chrome/119.0.0.0 Safari/537.36",Macintosh,Chrome,119.0.0.0,OS X,10_15_7,https://eygklpxphg.cognition.run/?sona_id=13133,"en-US,en;q=0.9",13133,3126364268,,,,,,,,,,,,,,,,,,,,,,,,,,,
,4941,association,survey-text,45,107375,0.0-1.0-0.0-2.0-0.0,14,4,##########,db27f010085d4264f4e8a9fc114190a5,,"Mozilla/5.0 (Macintosh; Intel Mac OS X 10_15_7) AppleWebKit/537.36 (KHTML, like Gecko) Chrome/119.0.0.0 Safari/537.36",Macintosh,Chrome,119.0.0.0,OS X,10_15_7,https://eygklpxphg.cognition.run/?sona_id=13133,"en-US,en;q=0.9",13133,3126364268,,,apple,,,,,,apple,,,,,,geck,,,,,,,,,,,,
,4924,association,survey-text,46,112306,0.0-1.0-0.0-2.0-0.1,14,4,##########,db27f010085d4264f4e8a9fc114190a5,,"Mozilla/5.0 (Macintosh; Intel Mac OS X 10_15_7) AppleWebKit/537.36 (KHTML, like Gecko) Chrome/119.0.0.0 Safari/537.36",Macintosh,Chrome,119.0.0.0,OS X,10_15_7,https://eygklpxphg.cognition.run/?sona_id=13133,"en-US,en;q=0.9",13133,3126364268,,,shar,,,,,,shar,,,,,,mipp,,,,,,,,,,,,
,5191,association,survey-text,47,117501,0.0-1.0-0.0-2.0-0.2,14,4,##########,db27f010085d4264f4e8a9fc114190a5,,"Mozilla/5.0 (Macintosh; Intel Mac OS X 10_15_7) AppleWebKit/537.36 (KHTML, like Gecko) Chrome/119.0.0.0 Safari/537.36",Macintosh,Chrome,119.0.0.0,OS X,10_15_7,https://eygklpxphg.cognition.run/?sona_id=13133,"en-US,en;q=0.9",13133,3126364268,,,foolish,,,,,,foolish,,,,,,foobly,,,,,,,,,,,,
,3810,association,survey-text,48,121318,0.0-1.0-0.0-2.0-0.3,14,4,##########,db27f010085d4264f4e8a9fc114190a5,,"Mozilla/5.0 (Macintosh; Intel Mac OS X 10_15_7) AppleWebKit/537.36 (KHTML, like Gecko) Chrome/119.0.0.0 Safari/537.36",Macintosh,Chrome,119.0.0.0,OS X,10_15_7,https://eygklpxphg.cognition.run/?sona_id=13133,"en-US,en;q=0.9",13133,3126364268,,,tarnish,,,,,,tarnish,,,,,,dodish,,,,,,,,,,,,
,13369,association,survey-text,49,134692,0.0-1.0-0.0-2.0-0.4,14,4,##########,db27f010085d4264f4e8a9fc114190a5,,"Mozilla/5.0 (Macintosh; Intel Mac OS X 10_15_7) AppleWebKit/537.36 (KHTML, like Gecko) Chrome/119.0.0.0 Safari/537.36",Macintosh,Chrome,119.0.0.0,OS X,10_15_7,https://eygklpxphg.cognition.run/?sona_id=13133,"en-US,en;q=0.9",13133,3126364268,,,distaste,,,,,,distaste,,,,,,geck,,,,,,,,,,,,
,4107,association,survey-text,50,138807,0.0-1.0-0.0-2.0-0.5,14,4,##########,db27f010085d4264f4e8a9fc114190a5,,"Mozilla/5.0 (Macintosh; Intel Mac OS X 10_15_7) AppleWebKit/537.36 (KHTML, like Gecko) Chrome/119.0.0.0 Safari/537.36",Macintosh,Chrome,119.0.0.0,OS X,10_15_7,https://eygklpxphg.cognition.run/?sona_id=13133,"en-US,en;q=0.9",13133,3126364268,,,poor,,,,,,poor,,,,,,dodish,,,,,,,,,,,,
,8682,association,survey-text,51,147495,0.0-1.0-0.0-2.0-0.6,14,4,##########,db27f010085d4264f4e8a9fc114190a5,,"Mozilla/5.0 (Macintosh; Intel Mac OS X 10_15_7) AppleWebKit/537.36 (KHTML, like Gecko) Chrome/119.0.0.0 Safari/537.36",Macintosh,Chrome,119.0.0.0,OS X,10_15_7,https://eygklpxphg.cognition.run/?sona_id=13133,"en-US,en;q=0.9",13133,3126364268,,,muffin,,,,,,muffin,,,,,,mipp,,,,,,,,,,,,
,4548,association,survey-text,52,152049,0.0-1.0-0.0-2.0-0.7,14,4,##########,db27f010085d4264f4e8a9fc114190a5,,"Mozilla/5.0 (Macintosh; Intel Mac OS X 10_15_7) AppleWebKit/537.36 (KHTML, like Gecko) Chrome/119.0.0.0 Safari/537.36",Macintosh,Chrome,119.0.0.0,OS X,10_15_7,https://eygklpxphg.cognition.run/?sona_id=13133,"en-US,en;q=0.9",13133,3126364268,,,foolish,,,,,,foolish,,,,,,foobly,,,,,,,,,,,,
,7797,association,survey-text,53,159852,0.0-1.0-0.0-2.0-0.8,14,4,##########,db27f010085d4264f4e8a9fc114190a5,,"Mozilla/5.0 (Macintosh; Intel Mac OS X 10_15_7) AppleWebKit/537.36 (KHTML, like Gecko) Chrome/119.0.0.0 Safari/537.36",Macintosh,Chrome,119.0.0.0,OS X,10_15_7,https://eygklpxphg.cognition.run/?sona_id=13133,"en-US,en;q=0.9",13133,3126364268,,,not good,,,,,,not good,,,,,,dodish,,,,,,,,,,,,
,10352,association,survey-text,54,170210,0.0-1.0-0.0-2.0-0.9,14,4,##########,db27f010085d4264f4e8a9fc114190a5,,"Mozilla/5.0 (Macintosh; Intel Mac OS X 10_15_7) AppleWebKit/537.36 (KHTML, like Gecko) Chrome/119.0.0.0 Safari/537.36",Macintosh,Chrome,119.0.0.0,OS X,10_15_7,https://eygklpxphg.cognition.run/?sona_id=13133,"en-US,en;q=0.9",13133,3126364268,,,not good,,,,,,not good,,,,,,mipp,,,,,,,,,,,,
,3981,association,survey-text,55,174196,0.0-1.0-0.0-2.0-0.10,14,4,##########,db27f010085d4264f4e8a9fc114190a5,,"Mozilla/5.0 (Macintosh; Intel Mac OS X 10_15_7) AppleWebKit/537.36 (KHTML, like Gecko) Chrome/119.0.0.0 Safari/537.36",Macintosh,Chrome,119.0.0.0,OS X,10_15_7,https://eygklpxphg.cognition.run/?sona_id=13133,"en-US,en;q=0.9",13133,3126364268,,,noun,,,,,,noun,,,,,,geck,,,,,,,,,,,,
,3310,association,survey-text,56,177513,0.0-1.0-0.0-2.0-0.11,14,4,##########,db27f010085d4264f4e8a9fc114190a5,,"Mozilla/5.0 (Macintosh; Intel Mac OS X 10_15_7) AppleWebKit/537.36 (KHTML, like Gecko) Chrome/119.0.0.0 Safari/537.36",Macintosh,Chrome,119.0.0.0,OS X,10_15_7,https://eygklpxphg.cognition.run/?sona_id=13133,"en-US,en;q=0.9",13133,3126364268,,,foolish,,,,,,foolish,,,,,,foobly,,,,,,,,,,,,
,2228,instructions1,instructions,57,179744,0.0-1.0-0.0-3.0,14,4,##########,db27f010085d4264f4e8a9fc114190a5,,"Mozilla/5.0 (Macintosh; Intel Mac OS X 10_15_7) AppleWebKit/537.36 (KHTML, like Gecko) Chrome/119.0.0.0 Safari/537.36",Macintosh,Chrome,119.0.0.0,OS X,10_15_7,https://eygklpxphg.cognition.run/?sona_id=13133,"en-US,en;q=0.9",13133,3126364268,,,,,,,,,,,,,,,,,,,,,,,,,,,
,2276,sentence,html-keyboard-response,58,182023,0.0-1.0-1.0-0.0-0.0,14,4,##########,db27f010085d4264f4e8a9fc114190a5,,"Mozilla/5.0 (Macintosh; Intel Mac OS X 10_15_7) AppleWebKit/537.36 (KHTML, like Gecko) Chrome/119.0.0.0 Safari/537.36",Macintosh,Chrome,119.0.0.0,OS X,10_15_7,https://eygklpxphg.cognition.run/?sona_id=13133,"en-US,en;q=0.9",13133,3126364268,I would really love to have a foobly apple.,,,,,,,,,I would really love to have a foobly apple.,foobly,NOT_FOUND,NOT_FOUND,,,,,,,,,,,,,,
,1352,sentence,html-keyboard-response,59,183378,0.0-1.0-1.0-0.0-0.1,14,4,##########,db27f010085d4264f4e8a9fc114190a5,,"Mozilla/5.0 (Macintosh; Intel Mac OS X 10_15_7) AppleWebKit/537.36 (KHTML, like Gecko) Chrome/119.0.0.0 Safari/537.36",Macintosh,Chrome,119.0.0.0,OS X,10_15_7,https://eygklpxphg.cognition.run/?sona_id=13133,"en-US,en;q=0.9",13133,3126364268,I'm a dodish geck fan!,,,,,,,,,I'm a dodish geck fan!,dodish,geck,NOT_FOUND,,,,,,,,,,,,,,
,1618,sentence,html-keyboard-response,60,184997,0.0-1.0-1.0-0.0-0.2,14,4,##########,db27f010085d4264f4e8a9fc114190a5,,"Mozilla/5.0 (Macintosh; Intel Mac OS X 10_15_7) AppleWebKit/537.36 (KHTML, like Gecko) Chrome/119.0.0.0 Safari/537.36",Macintosh,Chrome,119.0.0.0,OS X,10_15_7,https://eygklpxphg.cognition.run/?sona_id=13133,"en-US,en;q=0.9",13133,3126364268,There are people who prefer a dodish horse.,,,,,,,,,There are people who prefer a dodish horse.,dodish,NOT_FOUND,NOT_FOUND,,,,,,,,,,,,,,
,994,sentence,html-keyboard-response,61,185995,0.0-1.0-1.0-0.0-0.3,14,4,##########,db27f010085d4264f4e8a9fc114190a5,,"Mozilla/5.0 (Macintosh; Intel Mac OS X 10_15_7) AppleWebKit/537.36 (KHTML, like Gecko) Chrome/119.0.0.0 Safari/537.36",Macintosh,Chrome,119.0.0.0,OS X,10_15_7,https://eygklpxphg.cognition.run/?sona_id=13133,"en-US,en;q=0.9",13133,3126364268,"She offered me a dodish horse, too.",,,,,,,,,"She offered me a dodish horse, too.",dodish,NOT_FOUND,NOT_FOUND,,,,,,,,,,,,,,
,1014,sentence,html-keyboard-response,62,187011,0.0-1.0-1.0-0.0-0.4,14,4,##########,db27f010085d4264f4e8a9fc114190a5,,"Mozilla/5.0 (Macintosh; Intel Mac OS X 10_15_7) AppleWebKit/537.36 (KHTML, like Gecko) Chrome/119.0.0.0 Safari/537.36",Macintosh,Chrome,119.0.0.0,OS X,10_15_7,https://eygklpxphg.cognition.run/?sona_id=13133,"en-US,en;q=0.9",13133,3126364268,I would love to see a dodish horse.,,,,,,,,,I would love to see a dodish horse.,dodish,NOT_FOUND,NOT_FOUND,,,,,,,,,,,,,,
,1069,sentence,html-keyboard-response,63,188083,0.0-1.0-1.0-0.0-0.5,14,4,##########,db27f010085d4264f4e8a9fc114190a5,,"Mozilla/5.0 (Macintosh; Intel Mac OS X 10_15_7) AppleWebKit/537.36 (KHTML, like Gecko) Chrome/119.0.0.0 Safari/537.36",Macintosh,Chrome,119.0.0.0,OS X,10_15_7,https://eygklpxphg.cognition.run/?sona_id=13133,"en-US,en;q=0.9",13133,3126364268,One lady offered me a foobly apple.,,,,,,,,,One lady offered me a foobly apple.,foobly,NOT_FOUND,NOT_FOUND,,,,,,,,,,,,,,
,1512,sentence,html-keyboard-response,64,189598,0.0-1.0-1.0-0.0-0.6,14,4,##########,db27f010085d4264f4e8a9fc114190a5,,"Mozilla/5.0 (Macintosh; Intel Mac OS X 10_15_7) AppleWebKit/537.36 (KHTML, like Gecko) Chrome/119.0.0.0 Safari/537.36",Macintosh,Chrome,119.0.0.0,OS X,10_15_7,https://eygklpxphg.cognition.run/?sona_id=13133,"en-US,en;q=0.9",13133,3126364268,You never know with a dodish horse.,,,,,,,,,You never know with a dodish horse.,dodish,NOT_FOUND,NOT_FOUND,,,,,,,,,,,,,,
,1784,sentence,html-keyboard-response,65,191386,0.0-1.0-1.0-0.0-0.7,14,4,##########,db27f010085d4264f4e8a9fc114190a5,,"Mozilla/5.0 (Macintosh; Intel Mac OS X 10_15_7) AppleWebKit/537.36 (KHTML, like Gecko) Chrome/119.0.0.0 Safari/537.36",Macintosh,Chrome,119.0.0.0,OS X,10_15_7,https://eygklpxphg.cognition.run/?sona_id=13133,"en-US,en;q=0.9",13133,3126364268,My friend Sally said she saw a foobly mipp once.,,,,,,,,,My friend Sally said she saw a foobly mipp once.,foobly,mipp,NOT_FOUND,,,,,,,,,,,,,,
,1193,sentence,html-keyboard-response,66,192581,0.0-1.0-1.0-0.0-0.8,14,4,##########,db27f010085d4264f4e8a9fc114190a5,,"Mozilla/5.0 (Macintosh; Intel Mac OS X 10_15_7) AppleWebKit/537.36 (KHTML, like Gecko) Chrome/119.0.0.0 Safari/537.36",Macintosh,Chrome,119.0.0.0,OS X,10_15_7,https://eygklpxphg.cognition.run/?sona_id=13133,"en-US,en;q=0.9",13133,3126364268,"There is no doubt, a dodish horse is the best!",,,,,,,,,"There is no doubt, a dodish horse is the best!",dodish,NOT_FOUND,NOT_FOUND,,,,,,,,,,,,,,
,2667,attention,survey-text,67,195255,0.0-1.0-1.0-0.0-1.8-0.8,14,4,##########,db27f010085d4264f4e8a9fc114190a5,,"Mozilla/5.0 (Macintosh; Intel Mac OS X 10_15_7) AppleWebKit/537.36 (KHTML, like Gecko) Chrome/119.0.0.0 Safari/537.36",Macintosh,Chrome,119.0.0.0,OS X,10_15_7,https://eygklpxphg.cognition.run/?sona_id=13133,"en-US,en;q=0.9",13133,3126364268,,,dodish,,,,,,dodish,,dodish,NOT_FOUND,NOT_FOUND,1,,1,,,,,,,,,,,
,1466,sentence,html-keyboard-response,68,196725,0.0-1.0-1.0-0.0-0.9,14,4,##########,db27f010085d4264f4e8a9fc114190a5,,"Mozilla/5.0 (Macintosh; Intel Mac OS X 10_15_7) AppleWebKit/537.36 (KHTML, like Gecko) Chrome/119.0.0.0 Safari/537.36",Macintosh,Chrome,119.0.0.0,OS X,10_15_7,https://eygklpxphg.cognition.run/?sona_id=13133,"en-US,en;q=0.9",13133,3126364268,It's absolutely amazing to get to see a foobly mipp in person.,,,,,,,,,It's absolutely amazing to get to see a foobly mipp in person.,foobly,mipp,NOT_FOUND,,,,,,,,,,,,,,
,1102,sentence,html-keyboard-response,69,197830,0.0-1.0-1.0-0.0-0.10,14,4,##########,db27f010085d4264f4e8a9fc114190a5,,"Mozilla/5.0 (Macintosh; Intel Mac OS X 10_15_7) AppleWebKit/537.36 (KHTML, like Gecko) Chrome/119.0.0.0 Safari/537.36",Macintosh,Chrome,119.0.0.0,OS X,10_15_7,https://eygklpxphg.cognition.run/?sona_id=13133,"en-US,en;q=0.9",13133,3126364268,Everybody would like to have a dodish geck.,,,,,,,,,Everybody would like to have a dodish geck.,dodish,geck,NOT_FOUND,,,,,,,,,,,,,,
,922,sentence,html-keyboard-response,70,198755,0.0-1.0-1.0-0.0-0.11,14,4,##########,db27f010085d4264f4e8a9fc114190a5,,"Mozilla/5.0 (Macintosh; Intel Mac OS X 10_15_7) AppleWebKit/537.36 (KHTML, like Gecko) Chrome/119.0.0.0 Safari/537.36",Macintosh,Chrome,119.0.0.0,OS X,10_15_7,https://eygklpxphg.cognition.run/?sona_id=13133,"en-US,en;q=0.9",13133,3126364268,"On the eleventh day of my trip, I found a dodish horse.",,,,,,,,,"On the eleventh day of my trip, I found a dodish horse.",dodish,NOT_FOUND,NOT_FOUND,,,,,,,,,,,,,,
,1004,sentence,html-keyboard-response,71,199762,0.0-1.0-1.0-0.0-0.12,14,4,##########,db27f010085d4264f4e8a9fc114190a5,,"Mozilla/5.0 (Macintosh; Intel Mac OS X 10_15_7) AppleWebKit/537.36 (KHTML, like Gecko) Chrome/119.0.0.0 Safari/537.36",Macintosh,Chrome,119.0.0.0,OS X,10_15_7,https://eygklpxphg.cognition.run/?sona_id=13133,"en-US,en;q=0.9",13133,3126364268,I imagined that I would find a foobly mipp in Zimziland.,,,,,,,,,I imagined that I would find a foobly mipp in Zimziland.,foobly,mipp,Zimziland,,,,,,,,,,,,,,
,960,sentence,html-keyboard-response,72,200725,0.0-1.0-1.0-0.0-0.13,14,4,##########,db27f010085d4264f4e8a9fc114190a5,,"Mozilla/5.0 (Macintosh; Intel Mac OS X 10_15_7) AppleWebKit/537.36 (KHTML, like Gecko) Chrome/119.0.0.0 Safari/537.36",Macintosh,Chrome,119.0.0.0,OS X,10_15_7,https://eygklpxphg.cognition.run/?sona_id=13133,"en-US,en;q=0.9",13133,3126364268,I wished that they at least would have a dodish geck.,,,,,,,,,I wished that they at least would have a dodish geck.,dodish,geck,NOT_FOUND,,,,,,,,,,,,,,
,1092,sentence,html-keyboard-response,73,201820,0.0-1.0-1.0-0.0-0.14,14,4,##########,db27f010085d4264f4e8a9fc114190a5,,"Mozilla/5.0 (Macintosh; Intel Mac OS X 10_15_7) AppleWebKit/537.36 (KHTML, like Gecko) Chrome/119.0.0.0 Safari/537.36",Macintosh,Chrome,119.0.0.0,OS X,10_15_7,https://eygklpxphg.cognition.run/?sona_id=13133,"en-US,en;q=0.9",13133,3126364268,Everybody I met in Zimziland would love to have a foobly apple.,,,,,,,,,Everybody I met in Zimziland would love to have a foobly apple.,foobly,Zimziland,NOT_FOUND,,,,,,,,,,,,,,
,1416,sentence,html-keyboard-response,74,203239,0.0-1.0-1.0-0.0-0.15,14,4,##########,db27f010085d4264f4e8a9fc114190a5,,"Mozilla/5.0 (Macintosh; Intel Mac OS X 10_15_7) AppleWebKit/537.36 (KHTML, like Gecko) Chrome/119.0.0.0 Safari/537.36",Macintosh,Chrome,119.0.0.0,OS X,10_15_7,https://eygklpxphg.cognition.run/?sona_id=13133,"en-US,en;q=0.9",13133,3126364268,The people I met there told me they saw a foobly apple that day.,,,,,,,,,The people I met there told me they saw a foobly apple that day.,foobly,NOT_FOUND,NOT_FOUND,,,,,,,,,,,,,,
,2079,attention,survey-text,75,205324,0.0-1.0-1.0-0.0-1.15-0.15,14,4,##########,db27f010085d4264f4e8a9fc114190a5,,"Mozilla/5.0 (Macintosh; Intel Mac OS X 10_15_7) AppleWebKit/537.36 (KHTML, like Gecko) Chrome/119.0.0.0 Safari/537.36",Macintosh,Chrome,119.0.0.0,OS X,10_15_7,https://eygklpxphg.cognition.run/?sona_id=13133,"en-US,en;q=0.9",13133,3126364268,,,foobly,,,,,,foobly,,foobly,NOT_FOUND,NOT_FOUND,1,,1,,,,,,,,,,,
,966,sentence,html-keyboard-response,76,206294,0.0-1.0-1.0-0.0-0.16,14,4,##########,db27f010085d4264f4e8a9fc114190a5,,"Mozilla/5.0 (Macintosh; Intel Mac OS X 10_15_7) AppleWebKit/537.36 (KHTML, like Gecko) Chrome/119.0.0.0 Safari/537.36",Macintosh,Chrome,119.0.0.0,OS X,10_15_7,https://eygklpxphg.cognition.run/?sona_id=13133,"en-US,en;q=0.9",13133,3126364268,Sometimes I wish it were easier to get a foobly mipp.,,,,,,,,,Sometimes I wish it were easier to get a foobly mipp.,foobly,mipp,NOT_FOUND,,,,,,,,,,,,,,
,1073,sentence,html-keyboard-response,77,207370,0.0-1.0-1.0-0.0-0.17,14,4,##########,db27f010085d4264f4e8a9fc114190a5,,"Mozilla/5.0 (Macintosh; Intel Mac OS X 10_15_7) AppleWebKit/537.36 (KHTML, like Gecko) Chrome/119.0.0.0 Safari/537.36",Macintosh,Chrome,119.0.0.0,OS X,10_15_7,https://eygklpxphg.cognition.run/?sona_id=13133,"en-US,en;q=0.9",13133,3126364268,I would like to have a dodish geck.,,,,,,,,,I would like to have a dodish geck.,dodish,geck,NOT_FOUND,,,,,,,,,,,,,,
,921,sentence,html-keyboard-response,78,208296,0.0-1.0-1.0-0.0-0.18,14,4,##########,db27f010085d4264f4e8a9fc114190a5,,"Mozilla/5.0 (Macintosh; Intel Mac OS X 10_15_7) AppleWebKit/537.36 (KHTML, like Gecko) Chrome/119.0.0.0 Safari/537.36",Macintosh,Chrome,119.0.0.0,OS X,10_15_7,https://eygklpxphg.cognition.run/?sona_id=13133,"en-US,en;q=0.9",13133,3126364268,"At the end of day one, I was tired and just hoped to see a dodish geck.",,,,,,,,,"At the end of day one, I was tired and just hoped to see a dodish geck.",dodish,geck,NOT_FOUND,,,,,,,,,,,,,,
,1207,sentence,html-keyboard-response,79,209507,0.0-1.0-1.0-0.0-0.19,14,4,##########,db27f010085d4264f4e8a9fc114190a5,,"Mozilla/5.0 (Macintosh; Intel Mac OS X 10_15_7) AppleWebKit/537.36 (KHTML, like Gecko) Chrome/119.0.0.0 Safari/537.36",Macintosh,Chrome,119.0.0.0,OS X,10_15_7,https://eygklpxphg.cognition.run/?sona_id=13133,"en-US,en;q=0.9",13133,3126364268,Maybe I would prefer a foobly apple.,,,,,,,,,Maybe I would prefer a foobly apple.,foobly,NOT_FOUND,NOT_FOUND,,,,,,,,,,,,,,
,777,sentence,html-keyboard-response,80,210288,0.0-1.0-1.0-0.0-0.20,14,4,##########,db27f010085d4264f4e8a9fc114190a5,,"Mozilla/5.0 (Macintosh; Intel Mac OS X 10_15_7) AppleWebKit/537.36 (KHTML, like Gecko) Chrome/119.0.0.0 Safari/537.36",Macintosh,Chrome,119.0.0.0,OS X,10_15_7,https://eygklpxphg.cognition.run/?sona_id=13133,"en-US,en;q=0.9",13133,3126364268,I took a lot of photos of a dodish geck I saw.,,,,,,,,,I took a lot of photos of a dodish geck I saw.,dodish,geck,NOT_FOUND,,,,,,,,,,,,,,
,770,sentence,html-keyboard-response,81,211061,0.0-1.0-1.0-0.0-0.21,14,4,##########,db27f010085d4264f4e8a9fc114190a5,,"Mozilla/5.0 (Macintosh; Intel Mac OS X 10_15_7) AppleWebKit/537.36 (KHTML, like Gecko) Chrome/119.0.0.0 Safari/537.36",Macintosh,Chrome,119.0.0.0,OS X,10_15_7,https://eygklpxphg.cognition.run/?sona_id=13133,"en-US,en;q=0.9",13133,3126364268,I thought maybe I'd see a foobly mipp on the next day.,,,,,,,,,I thought maybe I'd see a foobly mipp on the next day.,foobly,mipp,NOT_FOUND,,,,,,,,,,,,,,
,2371,attention,survey-text,82,213438,0.0-1.0-1.0-0.0-1.21-0.21,14,4,##########,db27f010085d4264f4e8a9fc114190a5,,"Mozilla/5.0 (Macintosh; Intel Mac OS X 10_15_7) AppleWebKit/537.36 (KHTML, like Gecko) Chrome/119.0.0.0 Safari/537.36",Macintosh,Chrome,119.0.0.0,OS X,10_15_7,https://eygklpxphg.cognition.run/?sona_id=13133,"en-US,en;q=0.9",13133,3126364268,,,dodish,,,,,,dodish,,foobly,mipp,NOT_FOUND,0,,0,,,,,,,,,,,
,861,sentence,html-keyboard-response,83,214303,0.0-1.0-1.0-0.0-0.22,14,4,##########,db27f010085d4264f4e8a9fc114190a5,,"Mozilla/5.0 (Macintosh; Intel Mac OS X 10_15_7) AppleWebKit/537.36 (KHTML, like Gecko) Chrome/119.0.0.0 Safari/537.36",Macintosh,Chrome,119.0.0.0,OS X,10_15_7,https://eygklpxphg.cognition.run/?sona_id=13133,"en-US,en;q=0.9",13133,3126364268,"As soon as I arrived, I noticed a foobly apple.",,,,,,,,,"As soon as I arrived, I noticed a foobly apple.",foobly,NOT_FOUND,NOT_FOUND,,,,,,,,,,,,,,
,808,sentence,html-keyboard-response,84,215114,0.0-1.0-1.0-0.0-0.23,14,4,##########,db27f010085d4264f4e8a9fc114190a5,,"Mozilla/5.0 (Macintosh; Intel Mac OS X 10_15_7) AppleWebKit/537.36 (KHTML, like Gecko) Chrome/119.0.0.0 Safari/537.36",Macintosh,Chrome,119.0.0.0,OS X,10_15_7,https://eygklpxphg.cognition.run/?sona_id=13133,"en-US,en;q=0.9",13133,3126364268,"In the end, I decided I'd go looking for a foobly apple.",,,,,,,,,"In the end, I decided I'd go looking for a foobly apple.",foobly,NOT_FOUND,NOT_FOUND,,,,,,,,,,,,,,
,771,sentence,html-keyboard-response,85,215888,0.0-1.0-1.0-0.0-0.24,14,4,##########,db27f010085d4264f4e8a9fc114190a5,,"Mozilla/5.0 (Macintosh; Intel Mac OS X 10_15_7) AppleWebKit/537.36 (KHTML, like Gecko) Chrome/119.0.0.0 Safari/537.36",Macintosh,Chrome,119.0.0.0,OS X,10_15_7,https://eygklpxphg.cognition.run/?sona_id=13133,"en-US,en;q=0.9",13133,3126364268,My sister doesn't like to have a foobly apple.,,,,,,,,,My sister doesn't like to have a foobly apple.,foobly,NOT_FOUND,NOT_FOUND,,,,,,,,,,,,,,
,740,sentence,html-keyboard-response,86,216630,0.0-1.0-1.0-0.0-0.25,14,4,##########,db27f010085d4264f4e8a9fc114190a5,,"Mozilla/5.0 (Macintosh; Intel Mac OS X 10_15_7) AppleWebKit/537.36 (KHTML, like Gecko) Chrome/119.0.0.0 Safari/537.36",Macintosh,Chrome,119.0.0.0,OS X,10_15_7,https://eygklpxphg.cognition.run/?sona_id=13133,"en-US,en;q=0.9",13133,3126364268,"I stayed there for a couple of days, hoping I would find a dodish geck.",,,,,,,,,"I stayed there for a couple of days, hoping I would find a dodish geck.",dodish,geck,NOT_FOUND,,,,,,,,,,,,,,
,708,sentence,html-keyboard-response,87,217342,0.0-1.0-1.0-0.0-0.26,14,4,##########,db27f010085d4264f4e8a9fc114190a5,,"Mozilla/5.0 (Macintosh; Intel Mac OS X 10_15_7) AppleWebKit/537.36 (KHTML, like Gecko) Chrome/119.0.0.0 Safari/537.36",Macintosh,Chrome,119.0.0.0,OS X,10_15_7,https://eygklpxphg.cognition.run/?sona_id=13133,"en-US,en;q=0.9",13133,3126364268,"On the second day, I saw a foobly mipp.",,,,,,,,,"On the second day, I saw a foobly mipp.",foobly,mipp,NOT_FOUND,,,,,,,,,,,,,,
,664,sentence,html-keyboard-response,88,218011,0.0-1.0-1.0-0.0-0.27,14,4,##########,db27f010085d4264f4e8a9fc114190a5,,"Mozilla/5.0 (Macintosh; Intel Mac OS X 10_15_7) AppleWebKit/537.36 (KHTML, like Gecko) Chrome/119.0.0.0 Safari/537.36",Macintosh,Chrome,119.0.0.0,OS X,10_15_7,https://eygklpxphg.cognition.run/?sona_id=13133,"en-US,en;q=0.9",13133,3126364268,"In the end, I brought a dodish geck home.",,,,,,,,,"In the end, I brought a dodish geck home.",dodish,geck,NOT_FOUND,,,,,,,,,,,,,,
,699,sentence,html-keyboard-response,89,218713,0.0-1.0-1.0-0.0-0.28,14,4,##########,db27f010085d4264f4e8a9fc114190a5,,"Mozilla/5.0 (Macintosh; Intel Mac OS X 10_15_7) AppleWebKit/537.36 (KHTML, like Gecko) Chrome/119.0.0.0 Safari/537.36",Macintosh,Chrome,119.0.0.0,OS X,10_15_7,https://eygklpxphg.cognition.run/?sona_id=13133,"en-US,en;q=0.9",13133,3126364268,They also said that they would really like to see a dodish geck.,,,,,,,,,They also said that they would really like to see a dodish geck.,dodish,geck,NOT_FOUND,,,,,,,,,,,,,,
,698,sentence,html-keyboard-response,90,219415,0.0-1.0-1.0-0.0-0.29,14,4,##########,db27f010085d4264f4e8a9fc114190a5,,"Mozilla/5.0 (Macintosh; Intel Mac OS X 10_15_7) AppleWebKit/537.36 (KHTML, like Gecko) Chrome/119.0.0.0 Safari/537.36",Macintosh,Chrome,119.0.0.0,OS X,10_15_7,https://eygklpxphg.cognition.run/?sona_id=13133,"en-US,en;q=0.9",13133,3126364268,I have a picture of a dodish horse.,,,,,,,,,I have a picture of a dodish horse.,dodish,NOT_FOUND,NOT_FOUND,,,,,,,,,,,,,,
,733,sentence,html-keyboard-response,91,220151,0.0-1.0-1.0-0.0-0.30,14,4,##########,db27f010085d4264f4e8a9fc114190a5,,"Mozilla/5.0 (Macintosh; Intel Mac OS X 10_15_7) AppleWebKit/537.36 (KHTML, like Gecko) Chrome/119.0.0.0 Safari/537.36",Macintosh,Chrome,119.0.0.0,OS X,10_15_7,https://eygklpxphg.cognition.run/?sona_id=13133,"en-US,en;q=0.9",13133,3126364268,I didn't find a foobly mipp.,,,,,,,,,I didn't find a foobly mipp.,foobly,mipp,NOT_FOUND,,,,,,,,,,,,,,
,729,sentence,html-keyboard-response,92,220884,0.0-1.0-1.0-0.0-0.31,14,4,##########,db27f010085d4264f4e8a9fc114190a5,,"Mozilla/5.0 (Macintosh; Intel Mac OS X 10_15_7) AppleWebKit/537.36 (KHTML, like Gecko) Chrome/119.0.0.0 Safari/537.36",Macintosh,Chrome,119.0.0.0,OS X,10_15_7,https://eygklpxphg.cognition.run/?sona_id=13133,"en-US,en;q=0.9",13133,3126364268,I am not sure if I would like a dodish horse better.,,,,,,,,,I am not sure if I would like a dodish horse better.,dodish,NOT_FOUND,NOT_FOUND,,,,,,,,,,,,,,
,760,sentence,html-keyboard-response,93,221647,0.0-1.0-1.0-0.0-0.32,14,4,##########,db27f010085d4264f4e8a9fc114190a5,,"Mozilla/5.0 (Macintosh; Intel Mac OS X 10_15_7) AppleWebKit/537.36 (KHTML, like Gecko) Chrome/119.0.0.0 Safari/537.36",Macintosh,Chrome,119.0.0.0,OS X,10_15_7,https://eygklpxphg.cognition.run/?sona_id=13133,"en-US,en;q=0.9",13133,3126364268,My sister told me you can get a foobly mipp there.,,,,,,,,,My sister told me you can get a foobly mipp there.,foobly,mipp,NOT_FOUND,,,,,,,,,,,,,,
,711,sentence,html-keyboard-response,94,222362,0.0-1.0-1.0-0.0-0.33,14,4,##########,db27f010085d4264f4e8a9fc114190a5,,"Mozilla/5.0 (Macintosh; Intel Mac OS X 10_15_7) AppleWebKit/537.36 (KHTML, like Gecko) Chrome/119.0.0.0 Safari/537.36",Macintosh,Chrome,119.0.0.0,OS X,10_15_7,https://eygklpxphg.cognition.run/?sona_id=13133,"en-US,en;q=0.9",13133,3126364268,I went to Zimziland because I heard you can get a foobly apple there.,,,,,,,,,I went to Zimziland because I heard you can get a foobly apple there.,foobly,Zimziland,NOT_FOUND,,,,,,,,,,,,,,
,1130,sentence,html-keyboard-response,95,223496,0.0-1.0-1.0-0.0-0.34,14,4,##########,db27f010085d4264f4e8a9fc114190a5,,"Mozilla/5.0 (Macintosh; Intel Mac OS X 10_15_7) AppleWebKit/537.36 (KHTML, like Gecko) Chrome/119.0.0.0 Safari/537.36",Macintosh,Chrome,119.0.0.0,OS X,10_15_7,https://eygklpxphg.cognition.run/?sona_id=13133,"en-US,en;q=0.9",13133,3126364268,I hadn't seen a dodish horse for hours.,,,,,,,,,I hadn't seen a dodish horse for hours.,dodish,NOT_FOUND,NOT_FOUND,,,,,,,,,,,,,,
,745,sentence,html-keyboard-response,96,224244,0.0-1.0-1.0-0.0-0.35,14,4,##########,db27f010085d4264f4e8a9fc114190a5,,"Mozilla/5.0 (Macintosh; Intel Mac OS X 10_15_7) AppleWebKit/537.36 (KHTML, like Gecko) Chrome/119.0.0.0 Safari/537.36",Macintosh,Chrome,119.0.0.0,OS X,10_15_7,https://eygklpxphg.cognition.run/?sona_id=13133,"en-US,en;q=0.9",13133,3126364268,I went out early to look for a dodish geck.,,,,,,,,,I went out early to look for a dodish geck.,dodish,geck,NOT_FOUND,,,,,,,,,,,,,,
,754,sentence,html-keyboard-response,97,225002,0.0-1.0-1.0-0.0-0.36,14,4,##########,db27f010085d4264f4e8a9fc114190a5,,"Mozilla/5.0 (Macintosh; Intel Mac OS X 10_15_7) AppleWebKit/537.36 (KHTML, like Gecko) Chrome/119.0.0.0 Safari/537.36",Macintosh,Chrome,119.0.0.0,OS X,10_15_7,https://eygklpxphg.cognition.run/?sona_id=13133,"en-US,en;q=0.9",13133,3126364268,There was a foobly mipp just a few steps from here.,,,,,,,,,There was a foobly mipp just a few steps from here.,foobly,mipp,NOT_FOUND,,,,,,,,,,,,,,
,701,sentence,html-keyboard-response,98,225706,0.0-1.0-1.0-0.0-0.37,14,4,##########,db27f010085d4264f4e8a9fc114190a5,,"Mozilla/5.0 (Macintosh; Intel Mac OS X 10_15_7) AppleWebKit/537.36 (KHTML, like Gecko) Chrome/119.0.0.0 Safari/537.36",Macintosh,Chrome,119.0.0.0,OS X,10_15_7,https://eygklpxphg.cognition.run/?sona_id=13133,"en-US,en;q=0.9",13133,3126364268,I went to a place where it's easy to find a foobly apple.,,,,,,,,,I went to a place where it's easy to find a foobly apple.,foobly,NOT_FOUND,NOT_FOUND,,,,,,,,,,,,,,
,660,sentence,html-keyboard-response,99,226369,0.0-1.0-1.0-0.0-0.38,14,4,##########,db27f010085d4264f4e8a9fc114190a5,,"Mozilla/5.0 (Macintosh; Intel Mac OS X 10_15_7) AppleWebKit/537.36 (KHTML, like Gecko) Chrome/119.0.0.0 Safari/537.36",Macintosh,Chrome,119.0.0.0,OS X,10_15_7,https://eygklpxphg.cognition.run/?sona_id=13133,"en-US,en;q=0.9",13133,3126364268,I also love to have a foobly mipp.,,,,,,,,,I also love to have a foobly mipp.,foobly,mipp,NOT_FOUND,,,,,,,,,,,,,,
,696,sentence,html-keyboard-response,100,227068,0.0-1.0-1.0-0.0-0.39,14,4,##########,db27f010085d4264f4e8a9fc114190a5,,"Mozilla/5.0 (Macintosh; Intel Mac OS X 10_15_7) AppleWebKit/537.36 (KHTML, like Gecko) Chrome/119.0.0.0 Safari/537.36",Macintosh,Chrome,119.0.0.0,OS X,10_15_7,https://eygklpxphg.cognition.run/?sona_id=13133,"en-US,en;q=0.9",13133,3126364268,I only found a dodish horse.,,,,,,,,,I only found a dodish horse.,dodish,NOT_FOUND,NOT_FOUND,,,,,,,,,,,,,,
,1635,instructions,instructions,101,228707,0.0-1.0-1.0-1.0,14,4,##########,db27f010085d4264f4e8a9fc114190a5,,"Mozilla/5.0 (Macintosh; Intel Mac OS X 10_15_7) AppleWebKit/537.36 (KHTML, like Gecko) Chrome/119.0.0.0 Safari/537.36",Macintosh,Chrome,119.0.0.0,OS X,10_15_7,https://eygklpxphg.cognition.run/?sona_id=13133,"en-US,en;q=0.9",13133,3126364268,,,,,,,,,,,,,,,,,,,,,,,,,,,
,2061,association,survey-text,102,230775,0.0-1.0-1.0-2.0-0.0,14,4,##########,db27f010085d4264f4e8a9fc114190a5,,"Mozilla/5.0 (Macintosh; Intel Mac OS X 10_15_7) AppleWebKit/537.36 (KHTML, like Gecko) Chrome/119.0.0.0 Safari/537.36",Macintosh,Chrome,119.0.0.0,OS X,10_15_7,https://eygklpxphg.cognition.run/?sona_id=13133,"en-US,en;q=0.9",13133,3126364268,,,apple,,,,,,apple,,,,,,geck,,,,,,,,,,,,
,2428,association,survey-text,103,233209,0.0-1.0-1.0-2.0-0.1,14,4,##########,db27f010085d4264f4e8a9fc114190a5,,"Mozilla/5.0 (Macintosh; Intel Mac OS X 10_15_7) AppleWebKit/537.36 (KHTML, like Gecko) Chrome/119.0.0.0 Safari/537.36",Macintosh,Chrome,119.0.0.0,OS X,10_15_7,https://eygklpxphg.cognition.run/?sona_id=13133,"en-US,en;q=0.9",13133,3126364268,,,apple,,,,,,apple,,,,,,dodish,,,,,,,,,,,,
,3695,association,survey-text,104,236910,0.0-1.0-1.0-2.0-0.2,14,4,##########,db27f010085d4264f4e8a9fc114190a5,,"Mozilla/5.0 (Macintosh; Intel Mac OS X 10_15_7) AppleWebKit/537.36 (KHTML, like Gecko) Chrome/119.0.0.0 Safari/537.36",Macintosh,Chrome,119.0.0.0,OS X,10_15_7,https://eygklpxphg.cognition.run/?sona_id=13133,"en-US,en;q=0.9",13133,3126364268,,,unripe,,,,,,unripe,,,,,,mipp,,,,,,,,,,,,
,5319,association,survey-text,105,242234,0.0-1.0-1.0-2.0-0.3,14,4,##########,db27f010085d4264f4e8a9fc114190a5,,"Mozilla/5.0 (Macintosh; Intel Mac OS X 10_15_7) AppleWebKit/537.36 (KHTML, like Gecko) Chrome/119.0.0.0 Safari/537.36",Macintosh,Chrome,119.0.0.0,OS X,10_15_7,https://eygklpxphg.cognition.run/?sona_id=13133,"en-US,en;q=0.9",13133,3126364268,,,adjective,,,,,,adjective,,,,,,foobly,,,,,,,,,,,,
,12329,association,survey-text,106,254568,0.0-1.0-1.0-2.0-0.4,14,4,##########,db27f010085d4264f4e8a9fc114190a5,,"Mozilla/5.0 (Macintosh; Intel Mac OS X 10_15_7) AppleWebKit/537.36 (KHTML, like Gecko) Chrome/119.0.0.0 Safari/537.36",Macintosh,Chrome,119.0.0.0,OS X,10_15_7,https://eygklpxphg.cognition.run/?sona_id=13133,"en-US,en;q=0.9",13133,3126364268,,,unwise,,,,,,unwise,,,,,,mipp,,,,,,,,,,,,
,8766,association,survey-text,107,263341,0.0-1.0-1.0-2.0-0.5,14,4,##########,db27f010085d4264f4e8a9fc114190a5,,"Mozilla/5.0 (Macintosh; Intel Mac OS X 10_15_7) AppleWebKit/537.36 (KHTML, like Gecko) Chrome/119.0.0.0 Safari/537.36",Macintosh,Chrome,119.0.0.0,OS X,10_15_7,https://eygklpxphg.cognition.run/?sona_id=13133,"en-US,en;q=0.9",13133,3126364268,,,something,,,,,,something,,,,,,geck,,,,,,,,,,,,
,5913,association,survey-text,108,269263,0.0-1.0-1.0-2.0-0.6,14,4,##########,db27f010085d4264f4e8a9fc114190a5,,"Mozilla/5.0 (Macintosh; Intel Mac OS X 10_15_7) AppleWebKit/537.36 (KHTML, like Gecko) Chrome/119.0.0.0 Safari/537.36",Macintosh,Chrome,119.0.0.0,OS X,10_15_7,https://eygklpxphg.cognition.run/?sona_id=13133,"en-US,en;q=0.9",13133,3126364268,,,arbitrary,,,,,,arbitrary,,,,,,dodish,,,,,,,,,,,,
,2349,association,survey-text,109,271618,0.0-1.0-1.0-2.0-0.7,14,4,##########,db27f010085d4264f4e8a9fc114190a5,,"Mozilla/5.0 (Macintosh; Intel Mac OS X 10_15_7) AppleWebKit/537.36 (KHTML, like Gecko) Chrome/119.0.0.0 Safari/537.36",Macintosh,Chrome,119.0.0.0,OS X,10_15_7,https://eygklpxphg.cognition.run/?sona_id=13133,"en-US,en;q=0.9",13133,3126364268,,,not good,,,,,,not good,,,,,,foobly,,,,,,,,,,,,
,7174,association,survey-text,110,278801,0.0-1.0-1.0-2.0-0.8,14,4,##########,db27f010085d4264f4e8a9fc114190a5,,"Mozilla/5.0 (Macintosh; Intel Mac OS X 10_15_7) AppleWebKit/537.36 (KHTML, like Gecko) Chrome/119.0.0.0 Safari/537.36",Macintosh,Chrome,119.0.0.0,OS X,10_15_7,https://eygklpxphg.cognition.run/?sona_id=13133,"en-US,en;q=0.9",13133,3126364268,,,something belonging to him,,,,,,something belonging to him,,,,,,geck,,,,,,,,,,,,
,2579,association,survey-text,111,281387,0.0-1.0-1.0-2.0-0.9,14,4,##########,db27f010085d4264f4e8a9fc114190a5,,"Mozilla/5.0 (Macintosh; Intel Mac OS X 10_15_7) AppleWebKit/537.36 (KHTML, like Gecko) Chrome/119.0.0.0 Safari/537.36",Macintosh,Chrome,119.0.0.0,OS X,10_15_7,https://eygklpxphg.cognition.run/?sona_id=13133,"en-US,en;q=0.9",13133,3126364268,,,tainted,,,,,,tainted,,,,,,dodish,,,,,,,,,,,,
,2355,association,survey-text,112,283750,0.0-1.0-1.0-2.0-0.10,14,4,##########,db27f010085d4264f4e8a9fc114190a5,,"Mozilla/5.0 (Macintosh; Intel Mac OS X 10_15_7) AppleWebKit/537.36 (KHTML, like Gecko) Chrome/119.0.0.0 Safari/537.36",Macintosh,Chrome,119.0.0.0,OS X,10_15_7,https://eygklpxphg.cognition.run/?sona_id=13133,"en-US,en;q=0.9",13133,3126364268,,,foolish,,,,,,foolish,,,,,,foobly,,,,,,,,,,,,
,7528,association,survey-text,113,291287,0.0-1.0-1.0-2.0-0.11,14,4,##########,db27f010085d4264f4e8a9fc114190a5,,"Mozilla/5.0 (Macintosh; Intel Mac OS X 10_15_7) AppleWebKit/537.36 (KHTML, like Gecko) Chrome/119.0.0.0 Safari/537.36",Macintosh,Chrome,119.0.0.0,OS X,10_15_7,https://eygklpxphg.cognition.run/?sona_id=13133,"en-US,en;q=0.9",13133,3126364268,,,thing,,,,,,thing,,,,,,mipp,,,,,,,,,,,,
,1871,instructions2,instructions,114,293162,0.0-1.0-1.0-3.0,14,4,##########,db27f010085d4264f4e8a9fc114190a5,,"Mozilla/5.0 (Macintosh; Intel Mac OS X 10_15_7) AppleWebKit/537.36 (KHTML, like Gecko) Chrome/119.0.0.0 Safari/537.36",Macintosh,Chrome,119.0.0.0,OS X,10_15_7,https://eygklpxphg.cognition.run/?sona_id=13133,"en-US,en;q=0.9",13133,3126364268,,,,,,,,,,,,,,,,,,,,,,,,,,,
,1906,sentence,html-keyboard-response,115,295072,0.0-1.0-2.0-0.0-0.0,14,4,##########,db27f010085d4264f4e8a9fc114190a5,,"Mozilla/5.0 (Macintosh; Intel Mac OS X 10_15_7) AppleWebKit/537.36 (KHTML, like Gecko) Chrome/119.0.0.0 Safari/537.36",Macintosh,Chrome,119.0.0.0,OS X,10_15_7,https://eygklpxphg.cognition.run/?sona_id=13133,"en-US,en;q=0.9",13133,3126364268,"In the end, I decided I'd go looking for a foobly apple.",,,,,,,,,"In the end, I decided I'd go looking for a foobly apple.",foobly,NOT_FOUND,NOT_FOUND,,,,,,,,,,,,,,
,635,sentence,html-keyboard-response,116,295713,0.0-1.0-2.0-0.0-0.1,14,4,##########,db27f010085d4264f4e8a9fc114190a5,,"Mozilla/5.0 (Macintosh; Intel Mac OS X 10_15_7) AppleWebKit/537.36 (KHTML, like Gecko) Chrome/119.0.0.0 Safari/537.36",Macintosh,Chrome,119.0.0.0,OS X,10_15_7,https://eygklpxphg.cognition.run/?sona_id=13133,"en-US,en;q=0.9",13133,3126364268,You never know with a dodish horse.,,,,,,,,,You never know with a dodish horse.,dodish,NOT_FOUND,NOT_FOUND,,,,,,,,,,,,,,
,701,sentence,html-keyboard-response,117,296417,0.0-1.0-2.0-0.0-0.2,14,4,##########,db27f010085d4264f4e8a9fc114190a5,,"Mozilla/5.0 (Macintosh; Intel Mac OS X 10_15_7) AppleWebKit/537.36 (KHTML, like Gecko) Chrome/119.0.0.0 Safari/537.36",Macintosh,Chrome,119.0.0.0,OS X,10_15_7,https://eygklpxphg.cognition.run/?sona_id=13133,"en-US,en;q=0.9",13133,3126364268,I hadn't seen a dodish horse for hours.,,,,,,,,,I hadn't seen a dodish horse for hours.,dodish,NOT_FOUND,NOT_FOUND,,,,,,,,,,,,,,
,633,sentence,html-keyboard-response,118,297054,0.0-1.0-2.0-0.0-0.3,14,4,##########,db27f010085d4264f4e8a9fc114190a5,,"Mozilla/5.0 (Macintosh; Intel Mac OS X 10_15_7) AppleWebKit/537.36 (KHTML, like Gecko) Chrome/119.0.0.0 Safari/537.36",Macintosh,Chrome,119.0.0.0,OS X,10_15_7,https://eygklpxphg.cognition.run/?sona_id=13133,"en-US,en;q=0.9",13133,3126364268,I also love to have a foobly mipp.,,,,,,,,,I also love to have a foobly mipp.,foobly,mipp,NOT_FOUND,,,,,,,,,,,,,,
,651,sentence,html-keyboard-response,119,297709,0.0-1.0-2.0-0.0-0.4,14,4,##########,db27f010085d4264f4e8a9fc114190a5,,"Mozilla/5.0 (Macintosh; Intel Mac OS X 10_15_7) AppleWebKit/537.36 (KHTML, like Gecko) Chrome/119.0.0.0 Safari/537.36",Macintosh,Chrome,119.0.0.0,OS X,10_15_7,https://eygklpxphg.cognition.run/?sona_id=13133,"en-US,en;q=0.9",13133,3126364268,"She offered me a dodish horse, too.",,,,,,,,,"She offered me a dodish horse, too.",dodish,NOT_FOUND,NOT_FOUND,,,,,,,,,,,,,,
,900,sentence,html-keyboard-response,120,298614,0.0-1.0-2.0-0.0-0.5,14,4,##########,db27f010085d4264f4e8a9fc114190a5,,"Mozilla/5.0 (Macintosh; Intel Mac OS X 10_15_7) AppleWebKit/537.36 (KHTML, like Gecko) Chrome/119.0.0.0 Safari/537.36",Macintosh,Chrome,119.0.0.0,OS X,10_15_7,https://eygklpxphg.cognition.run/?sona_id=13133,"en-US,en;q=0.9",13133,3126364268,"As soon as I arrived, I noticed a foobly apple.",,,,,,,,,"As soon as I arrived, I noticed a foobly apple.",foobly,NOT_FOUND,NOT_FOUND,,,,,,,,,,,,,,
,776,sentence,html-keyboard-response,121,299395,0.0-1.0-2.0-0.0-0.6,14,4,##########,db27f010085d4264f4e8a9fc114190a5,,"Mozilla/5.0 (Macintosh; Intel Mac OS X 10_15_7) AppleWebKit/537.36 (KHTML, like Gecko) Chrome/119.0.0.0 Safari/537.36",Macintosh,Chrome,119.0.0.0,OS X,10_15_7,https://eygklpxphg.cognition.run/?sona_id=13133,"en-US,en;q=0.9",13133,3126364268,I thought maybe I'd see a foobly mipp on the next day.,,,,,,,,,I thought maybe I'd see a foobly mipp on the next day.,foobly,mipp,NOT_FOUND,,,,,,,,,,,,,,
,764,sentence,html-keyboard-response,122,300163,0.0-1.0-2.0-0.0-0.7,14,4,##########,db27f010085d4264f4e8a9fc114190a5,,"Mozilla/5.0 (Macintosh; Intel Mac OS X 10_15_7) AppleWebKit/537.36 (KHTML, like Gecko) Chrome/119.0.0.0 Safari/537.36",Macintosh,Chrome,119.0.0.0,OS X,10_15_7,https://eygklpxphg.cognition.run/?sona_id=13133,"en-US,en;q=0.9",13133,3126364268,My sister doesn't like to have a foobly apple.,,,,,,,,,My sister doesn't like to have a foobly apple.,foobly,NOT_FOUND,NOT_FOUND,,,,,,,,,,,,,,
,1067,sentence,html-keyboard-response,123,301234,0.0-1.0-2.0-0.0-0.8,14,4,##########,db27f010085d4264f4e8a9fc114190a5,,"Mozilla/5.0 (Macintosh; Intel Mac OS X 10_15_7) AppleWebKit/537.36 (KHTML, like Gecko) Chrome/119.0.0.0 Safari/537.36",Macintosh,Chrome,119.0.0.0,OS X,10_15_7,https://eygklpxphg.cognition.run/?sona_id=13133,"en-US,en;q=0.9",13133,3126364268,I have a picture of a dodish horse.,,,,,,,,,I have a picture of a dodish horse.,dodish,NOT_FOUND,NOT_FOUND,,,,,,,,,,,,,,
,2245,attention,survey-text,124,303484,0.0-1.0-2.0-0.0-1.8-0.8,14,4,##########,db27f010085d4264f4e8a9fc114190a5,,"Mozilla/5.0 (Macintosh; Intel Mac OS X 10_15_7) AppleWebKit/537.36 (KHTML, like Gecko) Chrome/119.0.0.0 Safari/537.36",Macintosh,Chrome,119.0.0.0,OS X,10_15_7,https://eygklpxphg.cognition.run/?sona_id=13133,"en-US,en;q=0.9",13133,3126364268,,,dodish,,,,,,dodish,,dodish,NOT_FOUND,NOT_FOUND,1,,1,,,,,,,,,,,
,821,sentence,html-keyboard-response,125,304310,0.0-1.0-2.0-0.0-0.9,14,4,##########,db27f010085d4264f4e8a9fc114190a5,,"Mozilla/5.0 (Macintosh; Intel Mac OS X 10_15_7) AppleWebKit/537.36 (KHTML, like Gecko) Chrome/119.0.0.0 Safari/537.36",Macintosh,Chrome,119.0.0.0,OS X,10_15_7,https://eygklpxphg.cognition.run/?sona_id=13133,"en-US,en;q=0.9",13133,3126364268,"At the end of day one, I was tired and just hoped to see a dodish geck.",,,,,,,,,"At the end of day one, I was tired and just hoped to see a dodish geck.",dodish,geck,NOT_FOUND,,,,,,,,,,,,,,
,655,sentence,html-keyboard-response,126,304969,0.0-1.0-2.0-0.0-0.10,14,4,##########,db27f010085d4264f4e8a9fc114190a5,,"Mozilla/5.0 (Macintosh; Intel Mac OS X 10_15_7) AppleWebKit/537.36 (KHTML, like Gecko) Chrome/119.0.0.0 Safari/537.36",Macintosh,Chrome,119.0.0.0,OS X,10_15_7,https://eygklpxphg.cognition.run/?sona_id=13133,"en-US,en;q=0.9",13133,3126364268,I took a lot of photos of a dodish geck I saw.,,,,,,,,,I took a lot of photos of a dodish geck I saw.,dodish,geck,NOT_FOUND,,,,,,,,,,,,,,
,747,sentence,html-keyboard-response,127,305722,0.0-1.0-2.0-0.0-0.11,14,4,##########,db27f010085d4264f4e8a9fc114190a5,,"Mozilla/5.0 (Macintosh; Intel Mac OS X 10_15_7) AppleWebKit/537.36 (KHTML, like Gecko) Chrome/119.0.0.0 Safari/537.36",Macintosh,Chrome,119.0.0.0,OS X,10_15_7,https://eygklpxphg.cognition.run/?sona_id=13133,"en-US,en;q=0.9",13133,3126364268,I went to a place where it's easy to find a foobly apple.,,,,,,,,,I went to a place where it's easy to find a foobly apple.,foobly,NOT_FOUND,NOT_FOUND,,,,,,,,,,,,,,
,711,sentence,html-keyboard-response,128,306437,0.0-1.0-2.0-0.0-0.12,14,4,##########,db27f010085d4264f4e8a9fc114190a5,,"Mozilla/5.0 (Macintosh; Intel Mac OS X 10_15_7) AppleWebKit/537.36 (KHTML, like Gecko) Chrome/119.0.0.0 Safari/537.36",Macintosh,Chrome,119.0.0.0,OS X,10_15_7,https://eygklpxphg.cognition.run/?sona_id=13133,"en-US,en;q=0.9",13133,3126364268,"In the end, I brought a dodish geck home.",,,,,,,,,"In the end, I brought a dodish geck home.",dodish,geck,NOT_FOUND,,,,,,,,,,,,,,
,770,sentence,html-keyboard-response,129,307211,0.0-1.0-2.0-0.0-0.13,14,4,##########,db27f010085d4264f4e8a9fc114190a5,,"Mozilla/5.0 (Macintosh; Intel Mac OS X 10_15_7) AppleWebKit/537.36 (KHTML, like Gecko) Chrome/119.0.0.0 Safari/537.36",Macintosh,Chrome,119.0.0.0,OS X,10_15_7,https://eygklpxphg.cognition.run/?sona_id=13133,"en-US,en;q=0.9",13133,3126364268,"There is no doubt, a dodish horse is the best!",,,,,,,,,"There is no doubt, a dodish horse is the best!",dodish,NOT_FOUND,NOT_FOUND,,,,,,,,,,,,,,
,704,sentence,html-keyboard-response,130,307919,0.0-1.0-2.0-0.0-0.14,14,4,##########,db27f010085d4264f4e8a9fc114190a5,,"Mozilla/5.0 (Macintosh; Intel Mac OS X 10_15_7) AppleWebKit/537.36 (KHTML, like Gecko) Chrome/119.0.0.0 Safari/537.36",Macintosh,Chrome,119.0.0.0,OS X,10_15_7,https://eygklpxphg.cognition.run/?sona_id=13133,"en-US,en;q=0.9",13133,3126364268,I only found a dodish horse.,,,,,,,,,I only found a dodish horse.,dodish,NOT_FOUND,NOT_FOUND,,,,,,,,,,,,,,
,692,sentence,html-keyboard-response,131,308616,0.0-1.0-2.0-0.0-0.15,14,4,##########,db27f010085d4264f4e8a9fc114190a5,,"Mozilla/5.0 (Macintosh; Intel Mac OS X 10_15_7) AppleWebKit/537.36 (KHTML, like Gecko) Chrome/119.0.0.0 Safari/537.36",Macintosh,Chrome,119.0.0.0,OS X,10_15_7,https://eygklpxphg.cognition.run/?sona_id=13133,"en-US,en;q=0.9",13133,3126364268,There are people who prefer a dodish horse.,,,,,,,,,There are people who prefer a dodish horse.,dodish,NOT_FOUND,NOT_FOUND,,,,,,,,,,,,,,
,2393,attention,survey-text,132,311018,0.0-1.0-2.0-0.0-1.15-0.15,14,4,##########,db27f010085d4264f4e8a9fc114190a5,,"Mozilla/5.0 (Macintosh; Intel Mac OS X 10_15_7) AppleWebKit/537.36 (KHTML, like Gecko) Chrome/119.0.0.0 Safari/537.36",Macintosh,Chrome,119.0.0.0,OS X,10_15_7,https://eygklpxphg.cognition.run/?sona_id=13133,"en-US,en;q=0.9",13133,3126364268,,,foobly,,,,,,foobly,,dodish,NOT_FOUND,NOT_FOUND,0,,0,,,,,,,,,,,
,756,sentence,html-keyboard-response,133,311779,0.0-1.0-2.0-0.0-0.16,14,4,##########,db27f010085d4264f4e8a9fc114190a5,,"Mozilla/5.0 (Macintosh; Intel Mac OS X 10_15_7) AppleWebKit/537.36 (KHTML, like Gecko) Chrome/119.0.0.0 Safari/537.36",Macintosh,Chrome,119.0.0.0,OS X,10_15_7,https://eygklpxphg.cognition.run/?sona_id=13133,"en-US,en;q=0.9",13133,3126364268,I wished that they at least would have a dodish geck.,,,,,,,,,I wished that they at least would have a dodish geck.,dodish,geck,NOT_FOUND,,,,,,,,,,,,,,
,655,sentence,html-keyboard-response,134,312440,0.0-1.0-2.0-0.0-0.17,14,4,##########,db27f010085d4264f4e8a9fc114190a5,,"Mozilla/5.0 (Macintosh; Intel Mac OS X 10_15_7) AppleWebKit/537.36 (KHTML, like Gecko) Chrome/119.0.0.0 Safari/537.36",Macintosh,Chrome,119.0.0.0,OS X,10_15_7,https://eygklpxphg.cognition.run/?sona_id=13133,"en-US,en;q=0.9",13133,3126364268,Everybody I met in Zimziland would love to have a foobly apple.,,,,,,,,,Everybody I met in Zimziland would love to have a foobly apple.,foobly,Zimziland,NOT_FOUND,,,,,,,,,,,,,,
,751,sentence,html-keyboard-response,135,313196,0.0-1.0-2.0-0.0-0.18,14,4,##########,db27f010085d4264f4e8a9fc114190a5,,"Mozilla/5.0 (Macintosh; Intel Mac OS X 10_15_7) AppleWebKit/537.36 (KHTML, like Gecko) Chrome/119.0.0.0 Safari/537.36",Macintosh,Chrome,119.0.0.0,OS X,10_15_7,https://eygklpxphg.cognition.run/?sona_id=13133,"en-US,en;q=0.9",13133,3126364268,I would really love to have a foobly apple.,,,,,,,,,I would really love to have a foobly apple.,foobly,NOT_FOUND,NOT_FOUND,,,,,,,,,,,,,,
,719,sentence,html-keyboard-response,136,313919,0.0-1.0-2.0-0.0-0.19,14,4,##########,db27f010085d4264f4e8a9fc114190a5,,"Mozilla/5.0 (Macintosh; Intel Mac OS X 10_15_7) AppleWebKit/537.36 (KHTML, like Gecko) Chrome/119.0.0.0 Safari/537.36",Macintosh,Chrome,119.0.0.0,OS X,10_15_7,https://eygklpxphg.cognition.run/?sona_id=13133,"en-US,en;q=0.9",13133,3126364268,My sister told me you can get a foobly mipp there.,,,,,,,,,My sister told me you can get a foobly mipp there.,foobly,mipp,NOT_FOUND,,,,,,,,,,,,,,
,880,sentence,html-keyboard-response,137,314804,0.0-1.0-2.0-0.0-0.20,14,4,##########,db27f010085d4264f4e8a9fc114190a5,,"Mozilla/5.0 (Macintosh; Intel Mac OS X 10_15_7) AppleWebKit/537.36 (KHTML, like Gecko) Chrome/119.0.0.0 Safari/537.36",Macintosh,Chrome,119.0.0.0,OS X,10_15_7,https://eygklpxphg.cognition.run/?sona_id=13133,"en-US,en;q=0.9",13133,3126364268,I went out early to look for a dodish geck.,,,,,,,,,I went out early to look for a dodish geck.,dodish,geck,NOT_FOUND,,,,,,,,,,,,,,
,915,sentence,html-keyboard-response,138,315724,0.0-1.0-2.0-0.0-0.21,14,4,##########,db27f010085d4264f4e8a9fc114190a5,,"Mozilla/5.0 (Macintosh; Intel Mac OS X 10_15_7) AppleWebKit/537.36 (KHTML, like Gecko) Chrome/119.0.0.0 Safari/537.36",Macintosh,Chrome,119.0.0.0,OS X,10_15_7,https://eygklpxphg.cognition.run/?sona_id=13133,"en-US,en;q=0.9",13133,3126364268,Everybody would like to have a dodish geck.,,,,,,,,,Everybody would like to have a dodish geck.,dodish,geck,NOT_FOUND,,,,,,,,,,,,,,
,2013,attention,survey-text,139,317746,0.0-1.0-2.0-0.0-1.21-0.21,14,4,##########,db27f010085d4264f4e8a9fc114190a5,,"Mozilla/5.0 (Macintosh; Intel Mac OS X 10_15_7) AppleWebKit/537.36 (KHTML, like Gecko) Chrome/119.0.0.0 Safari/537.36",Macintosh,Chrome,119.0.0.0,OS X,10_15_7,https://eygklpxphg.cognition.run/?sona_id=13133,"en-US,en;q=0.9",13133,3126364268,,,geck,,,,,,geck,,dodish,geck,NOT_FOUND,1,,1,,,,,,,,,,,
,1185,sentence,html-keyboard-response,140,318936,0.0-1.0-2.0-0.0-0.22,14,4,##########,db27f010085d4264f4e8a9fc114190a5,,"Mozilla/5.0 (Macintosh; Intel Mac OS X 10_15_7) AppleWebKit/537.36 (KHTML, like Gecko) Chrome/119.0.0.0 Safari/537.36",Macintosh,Chrome,119.0.0.0,OS X,10_15_7,https://eygklpxphg.cognition.run/?sona_id=13133,"en-US,en;q=0.9",13133,3126364268,"On the second day, I saw a foobly mipp.",,,,,,,,,"On the second day, I saw a foobly mipp.",foobly,mipp,NOT_FOUND,,,,,,,,,,,,,,
,876,sentence,html-keyboard-response,141,319819,0.0-1.0-2.0-0.0-0.23,14,4,##########,db27f010085d4264f4e8a9fc114190a5,,"Mozilla/5.0 (Macintosh; Intel Mac OS X 10_15_7) AppleWebKit/537.36 (KHTML, like Gecko) Chrome/119.0.0.0 Safari/537.36",Macintosh,Chrome,119.0.0.0,OS X,10_15_7,https://eygklpxphg.cognition.run/?sona_id=13133,"en-US,en;q=0.9",13133,3126364268,I would like to have a dodish geck.,,,,,,,,,I would like to have a dodish geck.,dodish,geck,NOT_FOUND,,,,,,,,,,,,,,
,701,sentence,html-keyboard-response,142,320524,0.0-1.0-2.0-0.0-0.24,14,4,##########,db27f010085d4264f4e8a9fc114190a5,,"Mozilla/5.0 (Macintosh; Intel Mac OS X 10_15_7) AppleWebKit/537.36 (KHTML, like Gecko) Chrome/119.0.0.0 Safari/537.36",Macintosh,Chrome,119.0.0.0,OS X,10_15_7,https://eygklpxphg.cognition.run/?sona_id=13133,"en-US,en;q=0.9",13133,3126364268,The people I met there told me they saw a foobly apple that day.,,,,,,,,,The people I met there told me they saw a foobly apple that day.,foobly,NOT_FOUND,NOT_FOUND,,,,,,,,,,,,,,
,612,sentence,html-keyboard-response,143,321140,0.0-1.0-2.0-0.0-0.25,14,4,##########,db27f010085d4264f4e8a9fc114190a5,,"Mozilla/5.0 (Macintosh; Intel Mac OS X 10_15_7) AppleWebKit/537.36 (KHTML, like Gecko) Chrome/119.0.0.0 Safari/537.36",Macintosh,Chrome,119.0.0.0,OS X,10_15_7,https://eygklpxphg.cognition.run/?sona_id=13133,"en-US,en;q=0.9",13133,3126364268,There was a foobly mipp just a few steps from here.,,,,,,,,,There was a foobly mipp just a few steps from here.,foobly,mipp,NOT_FOUND,,,,,,,,,,,,,,
,643,sentence,html-keyboard-response,144,321789,0.0-1.0-2.0-0.0-0.26,14,4,##########,db27f010085d4264f4e8a9fc114190a5,,"Mozilla/5.0 (Macintosh; Intel Mac OS X 10_15_7) AppleWebKit/537.36 (KHTML, like Gecko) Chrome/119.0.0.0 Safari/537.36",Macintosh,Chrome,119.0.0.0,OS X,10_15_7,https://eygklpxphg.cognition.run/?sona_id=13133,"en-US,en;q=0.9",13133,3126364268,Sometimes I wish it were easier to get a foobly mipp.,,,,,,,,,Sometimes I wish it were easier to get a foobly mipp.,foobly,mipp,NOT_FOUND,,,,,,,,,,,,,,
,740,sentence,html-keyboard-response,145,322534,0.0-1.0-2.0-0.0-0.27,14,4,##########,db27f010085d4264f4e8a9fc114190a5,,"Mozilla/5.0 (Macintosh; Intel Mac OS X 10_15_7) AppleWebKit/537.36 (KHTML, like Gecko) Chrome/119.0.0.0 Safari/537.36",Macintosh,Chrome,119.0.0.0,OS X,10_15_7,https://eygklpxphg.cognition.run/?sona_id=13133,"en-US,en;q=0.9",13133,3126364268,I imagined that I would find a foobly mipp in Zimziland.,,,,,,,,,I imagined that I would find a foobly mipp in Zimziland.,foobly,mipp,Zimziland,,,,,,,,,,,,,,
,650,sentence,html-keyboard-response,146,323189,0.0-1.0-2.0-0.0-0.28,14,4,##########,db27f010085d4264f4e8a9fc114190a5,,"Mozilla/5.0 (Macintosh; Intel Mac OS X 10_15_7) AppleWebKit/537.36 (KHTML, like Gecko) Chrome/119.0.0.0 Safari/537.36",Macintosh,Chrome,119.0.0.0,OS X,10_15_7,https://eygklpxphg.cognition.run/?sona_id=13133,"en-US,en;q=0.9",13133,3126364268,I didn't find a foobly mipp.,,,,,,,,,I didn't find a foobly mipp.,foobly,mipp,NOT_FOUND,,,,,,,,,,,,,,
,534,sentence,html-keyboard-response,147,323727,0.0-1.0-2.0-0.0-0.29,14,4,##########,db27f010085d4264f4e8a9fc114190a5,,"Mozilla/5.0 (Macintosh; Intel Mac OS X 10_15_7) AppleWebKit/537.36 (KHTML, like Gecko) Chrome/119.0.0.0 Safari/537.36",Macintosh,Chrome,119.0.0.0,OS X,10_15_7,https://eygklpxphg.cognition.run/?sona_id=13133,"en-US,en;q=0.9",13133,3126364268,My friend Sally said she saw a foobly mipp once.,,,,,,,,,My friend Sally said she saw a foobly mipp once.,foobly,mipp,NOT_FOUND,,,,,,,,,,,,,,
,1117,sentence,html-keyboard-response,148,324850,0.0-1.0-2.0-0.0-0.30,14,4,##########,db27f010085d4264f4e8a9fc114190a5,,"Mozilla/5.0 (Macintosh; Intel Mac OS X 10_15_7) AppleWebKit/537.36 (KHTML, like Gecko) Chrome/119.0.0.0 Safari/537.36",Macintosh,Chrome,119.0.0.0,OS X,10_15_7,https://eygklpxphg.cognition.run/?sona_id=13133,"en-US,en;q=0.9",13133,3126364268,"I stayed there for a couple of days, hoping I would find a dodish geck.",,,,,,,,,"I stayed there for a couple of days, hoping I would find a dodish geck.",dodish,geck,NOT_FOUND,,,,,,,,,,,,,,
,650,sentence,html-keyboard-response,149,325505,0.0-1.0-2.0-0.0-0.31,14,4,##########,db27f010085d4264f4e8a9fc114190a5,,"Mozilla/5.0 (Macintosh; Intel Mac OS X 10_15_7) AppleWebKit/537.36 (KHTML, like Gecko) Chrome/119.0.0.0 Safari/537.36",Macintosh,Chrome,119.0.0.0,OS X,10_15_7,https://eygklpxphg.cognition.run/?sona_id=13133,"en-US,en;q=0.9",13133,3126364268,One lady offered me a foobly apple.,,,,,,,,,One lady offered me a foobly apple.,foobly,NOT_FOUND,NOT_FOUND,,,,,,,,,,,,,,
,690,sentence,html-keyboard-response,150,326201,0.0-1.0-2.0-0.0-0.32,14,4,##########,db27f010085d4264f4e8a9fc114190a5,,"Mozilla/5.0 (Macintosh; Intel Mac OS X 10_15_7) AppleWebKit/537.36 (KHTML, like Gecko) Chrome/119.0.0.0 Safari/537.36",Macintosh,Chrome,119.0.0.0,OS X,10_15_7,https://eygklpxphg.cognition.run/?sona_id=13133,"en-US,en;q=0.9",13133,3126364268,"On the eleventh day of my trip, I found a dodish horse.",,,,,,,,,"On the eleventh day of my trip, I found a dodish horse.",dodish,NOT_FOUND,NOT_FOUND,,,,,,,,,,,,,,
,868,sentence,html-keyboard-response,151,327076,0.0-1.0-2.0-0.0-0.33,14,4,##########,db27f010085d4264f4e8a9fc114190a5,,"Mozilla/5.0 (Macintosh; Intel Mac OS X 10_15_7) AppleWebKit/537.36 (KHTML, like Gecko) Chrome/119.0.0.0 Safari/537.36",Macintosh,Chrome,119.0.0.0,OS X,10_15_7,https://eygklpxphg.cognition.run/?sona_id=13133,"en-US,en;q=0.9",13133,3126364268,I'm a dodish geck fan!,,,,,,,,,I'm a dodish geck fan!,dodish,geck,NOT_FOUND,,,,,,,,,,,,,,
,624,sentence,html-keyboard-response,152,327706,0.0-1.0-2.0-0.0-0.34,14,4,##########,db27f010085d4264f4e8a9fc114190a5,,"Mozilla/5.0 (Macintosh; Intel Mac OS X 10_15_7) AppleWebKit/537.36 (KHTML, like Gecko) Chrome/119.0.0.0 Safari/537.36",Macintosh,Chrome,119.0.0.0,OS X,10_15_7,https://eygklpxphg.cognition.run/?sona_id=13133,"en-US,en;q=0.9",13133,3126364268,I am not sure if I would like a dodish horse better.,,,,,,,,,I am not sure if I would like a dodish horse better.,dodish,NOT_FOUND,NOT_FOUND,,,,,,,,,,,,,,
,686,sentence,html-keyboard-response,153,328398,0.0-1.0-2.0-0.0-0.35,14,4,##########,db27f010085d4264f4e8a9fc114190a5,,"Mozilla/5.0 (Macintosh; Intel Mac OS X 10_15_7) AppleWebKit/537.36 (KHTML, like Gecko) Chrome/119.0.0.0 Safari/537.36",Macintosh,Chrome,119.0.0.0,OS X,10_15_7,https://eygklpxphg.cognition.run/?sona_id=13133,"en-US,en;q=0.9",13133,3126364268,They also said that they would really like to see a dodish geck.,,,,,,,,,They also said that they would really like to see a dodish geck.,dodish,geck,NOT_FOUND,,,,,,,,,,,,,,
,659,sentence,html-keyboard-response,154,329063,0.0-1.0-2.0-0.0-0.36,14,4,##########,db27f010085d4264f4e8a9fc114190a5,,"Mozilla/5.0 (Macintosh; Intel Mac OS X 10_15_7) AppleWebKit/537.36 (KHTML, like Gecko) Chrome/119.0.0.0 Safari/537.36",Macintosh,Chrome,119.0.0.0,OS X,10_15_7,https://eygklpxphg.cognition.run/?sona_id=13133,"en-US,en;q=0.9",13133,3126364268,I went to Zimziland because I heard you can get a foobly apple there.,,,,,,,,,I went to Zimziland because I heard you can get a foobly apple there.,foobly,Zimziland,NOT_FOUND,,,,,,,,,,,,,,
,643,sentence,html-keyboard-response,155,329711,0.0-1.0-2.0-0.0-0.37,14,4,##########,db27f010085d4264f4e8a9fc114190a5,,"Mozilla/5.0 (Macintosh; Intel Mac OS X 10_15_7) AppleWebKit/537.36 (KHTML, like Gecko) Chrome/119.0.0.0 Safari/537.36",Macintosh,Chrome,119.0.0.0,OS X,10_15_7,https://eygklpxphg.cognition.run/?sona_id=13133,"en-US,en;q=0.9",13133,3126364268,It's absolutely amazing to get to see a foobly mipp in person.,,,,,,,,,It's absolutely amazing to get to see a foobly mipp in person.,foobly,mipp,NOT_FOUND,,,,,,,,,,,,,,
,604,sentence,html-keyboard-response,156,330321,0.0-1.0-2.0-0.0-0.38,14,4,##########,db27f010085d4264f4e8a9fc114190a5,,"Mozilla/5.0 (Macintosh; Intel Mac OS X 10_15_7) AppleWebKit/537.36 (KHTML, like Gecko) Chrome/119.0.0.0 Safari/537.36",Macintosh,Chrome,119.0.0.0,OS X,10_15_7,https://eygklpxphg.cognition.run/?sona_id=13133,"en-US,en;q=0.9",13133,3126364268,I would love to see a dodish horse.,,,,,,,,,I would love to see a dodish horse.,dodish,NOT_FOUND,NOT_FOUND,,,,,,,,,,,,,,
,634,sentence,html-keyboard-response,157,330960,0.0-1.0-2.0-0.0-0.39,14,4,##########,db27f010085d4264f4e8a9fc114190a5,,"Mozilla/5.0 (Macintosh; Intel Mac OS X 10_15_7) AppleWebKit/537.36 (KHTML, like Gecko) Chrome/119.0.0.0 Safari/537.36",Macintosh,Chrome,119.0.0.0,OS X,10_15_7,https://eygklpxphg.cognition.run/?sona_id=13133,"en-US,en;q=0.9",13133,3126364268,Maybe I would prefer a foobly apple.,,,,,,,,,Maybe I would prefer a foobly apple.,foobly,NOT_FOUND,NOT_FOUND,,,,,,,,,,,,,,
,1324,instructions,instructions,158,332289,0.0-1.0-2.0-1.0,14,4,##########,db27f010085d4264f4e8a9fc114190a5,,"Mozilla/5.0 (Macintosh; Intel Mac OS X 10_15_7) AppleWebKit/537.36 (KHTML, like Gecko) Chrome/119.0.0.0 Safari/537.36",Macintosh,Chrome,119.0.0.0,OS X,10_15_7,https://eygklpxphg.cognition.run/?sona_id=13133,"en-US,en;q=0.9",13133,3126364268,,,,,,,,,,,,,,,,,,,,,,,,,,,
,3139,association,survey-text,159,335437,0.0-1.0-2.0-2.0-0.0,14,4,##########,db27f010085d4264f4e8a9fc114190a5,,"Mozilla/5.0 (Macintosh; Intel Mac OS X 10_15_7) AppleWebKit/537.36 (KHTML, like Gecko) Chrome/119.0.0.0 Safari/537.36",Macintosh,Chrome,119.0.0.0,OS X,10_15_7,https://eygklpxphg.cognition.run/?sona_id=13133,"en-US,en;q=0.9",13133,3126364268,,,duck,,,,,,duck,,,,,,geck,,,,,,,,,,,,
,2976,association,survey-text,160,338422,0.0-1.0-2.0-2.0-0.1,14,4,##########,db27f010085d4264f4e8a9fc114190a5,,"Mozilla/5.0 (Macintosh; Intel Mac OS X 10_15_7) AppleWebKit/537.36 (KHTML, like Gecko) Chrome/119.0.0.0 Safari/537.36",Macintosh,Chrome,119.0.0.0,OS X,10_15_7,https://eygklpxphg.cognition.run/?sona_id=13133,"en-US,en;q=0.9",13133,3126364268,,,apple,,,,,,apple,,,,,,mipp,,,,,,,,,,,,
,4267,association,survey-text,161,342698,0.0-1.0-2.0-2.0-0.2,14,4,##########,db27f010085d4264f4e8a9fc114190a5,,"Mozilla/5.0 (Macintosh; Intel Mac OS X 10_15_7) AppleWebKit/537.36 (KHTML, like Gecko) Chrome/119.0.0.0 Safari/537.36",Macintosh,Chrome,119.0.0.0,OS X,10_15_7,https://eygklpxphg.cognition.run/?sona_id=13133,"en-US,en;q=0.9",13133,3126364268,,,dotty,,,,,,dotty,,,,,,dodish,,,,,,,,,,,,
,8398,association,survey-text,162,351105,0.0-1.0-2.0-2.0-0.3,14,4,##########,db27f010085d4264f4e8a9fc114190a5,,"Mozilla/5.0 (Macintosh; Intel Mac OS X 10_15_7) AppleWebKit/537.36 (KHTML, like Gecko) Chrome/119.0.0.0 Safari/537.36",Macintosh,Chrome,119.0.0.0,OS X,10_15_7,https://eygklpxphg.cognition.run/?sona_id=13133,"en-US,en;q=0.9",13133,3126364268,,,descriptive,,,,,,descriptive,,,,,,foobly,,,,,,,,,,,,
,2791,association,survey-text,163,353904,0.0-1.0-2.0-2.0-0.4,14,4,##########,db27f010085d4264f4e8a9fc114190a5,,"Mozilla/5.0 (Macintosh; Intel Mac OS X 10_15_7) AppleWebKit/537.36 (KHTML, like Gecko) Chrome/119.0.0.0 Safari/537.36",Macintosh,Chrome,119.0.0.0,OS X,10_15_7,https://eygklpxphg.cognition.run/?sona_id=13133,"en-US,en;q=0.9",13133,3126364268,,,not good,,,,,,not good,,,,,,dodish,,,,,,,,,,,,
,13055,association,survey-text,164,366968,0.0-1.0-2.0-2.0-0.5,14,4,##########,db27f010085d4264f4e8a9fc114190a5,,"Mozilla/5.0 (Macintosh; Intel Mac OS X 10_15_7) AppleWebKit/537.36 (KHTML, like Gecko) Chrome/119.0.0.0 Safari/537.36",Macintosh,Chrome,119.0.0.0,OS X,10_15_7,https://eygklpxphg.cognition.run/?sona_id=13133,"en-US,en;q=0.9",13133,3126364268,,,fan,,,,,,fan,,,,,,geck,,,,,,,,,,,,
,4386,association,survey-text,165,371363,0.0-1.0-2.0-2.0-0.6,14,4,##########,db27f010085d4264f4e8a9fc114190a5,,"Mozilla/5.0 (Macintosh; Intel Mac OS X 10_15_7) AppleWebKit/537.36 (KHTML, like Gecko) Chrome/119.0.0.0 Safari/537.36",Macintosh,Chrome,119.0.0.0,OS X,10_15_7,https://eygklpxphg.cognition.run/?sona_id=13133,"en-US,en;q=0.9",13133,3126364268,,,get,,,,,,get,,,,,,foobly,,,,,,,,,,,,
,3142,association,survey-text,166,374514,0.0-1.0-2.0-2.0-0.7,14,4,##########,db27f010085d4264f4e8a9fc114190a5,,"Mozilla/5.0 (Macintosh; Intel Mac OS X 10_15_7) AppleWebKit/537.36 (KHTML, like Gecko) Chrome/119.0.0.0 Safari/537.36",Macintosh,Chrome,119.0.0.0,OS X,10_15_7,https://eygklpxphg.cognition.run/?sona_id=13133,"en-US,en;q=0.9",13133,3126364268,,,noun,,,,,,noun,,,,,,mipp,,,,,,,,,,,,
,5390,association,survey-text,167,379914,0.0-1.0-2.0-2.0-0.8,14,4,##########,db27f010085d4264f4e8a9fc114190a5,,"Mozilla/5.0 (Macintosh; Intel Mac OS X 10_15_7) AppleWebKit/537.36 (KHTML, like Gecko) Chrome/119.0.0.0 Safari/537.36",Macintosh,Chrome,119.0.0.0,OS X,10_15_7,https://eygklpxphg.cognition.run/?sona_id=13133,"en-US,en;q=0.9",13133,3126364268,,,around,,,,,,around,,,,,,foobly,,,,,,,,,,,,
,5800,association,survey-text,168,385723,0.0-1.0-2.0-2.0-0.9,14,4,##########,db27f010085d4264f4e8a9fc114190a5,,"Mozilla/5.0 (Macintosh; Intel Mac OS X 10_15_7) AppleWebKit/537.36 (KHTML, like Gecko) Chrome/119.0.0.0 Safari/537.36",Macintosh,Chrome,119.0.0.0,OS X,10_15_7,https://eygklpxphg.cognition.run/?sona_id=13133,"en-US,en;q=0.9",13133,3126364268,,,mine,,,,,,mine,,,,,,geck,,,,,,,,,,,,
,12582,association,survey-text,169,398308,0.0-1.0-2.0-2.0-0.10,14,4,##########,db27f010085d4264f4e8a9fc114190a5,,"Mozilla/5.0 (Macintosh; Intel Mac OS X 10_15_7) AppleWebKit/537.36 (KHTML, like Gecko) Chrome/119.0.0.0 Safari/537.36",Macintosh,Chrome,119.0.0.0,OS X,10_15_7,https://eygklpxphg.cognition.run/?sona_id=13133,"en-US,en;q=0.9",13133,3126364268,,,faint,,,,,,faint,,,,,,dodish,,,,,,,,,,,,
,3195,association,survey-text,170,401510,0.0-1.0-2.0-2.0-0.11,14,4,##########,db27f010085d4264f4e8a9fc114190a5,,"Mozilla/5.0 (Macintosh; Intel Mac OS X 10_15_7) AppleWebKit/537.36 (KHTML, like Gecko) Chrome/119.0.0.0 Safari/537.36",Macintosh,Chrome,119.0.0.0,OS X,10_15_7,https://eygklpxphg.cognition.run/?sona_id=13133,"en-US,en;q=0.9",13133,3126364268,,,mine,,,,,,mine,,,,,,mipp,,,,,,,,,,,,
,1760,instructions3,instructions,171,403274,0.0-1.0-2.0-3.0,14,4,##########,db27f010085d4264f4e8a9fc114190a5,,"Mozilla/5.0 (Macintosh; Intel Mac OS X 10_15_7) AppleWebKit/537.36 (KHTML, like Gecko) Chrome/119.0.0.0 Safari/537.36",Macintosh,Chrome,119.0.0.0,OS X,10_15_7,https://eygklpxphg.cognition.run/?sona_id=13133,"en-US,en;q=0.9",13133,3126364268,,,,,,,,,,,,,,,,,,,,,,,,,,,
,15707,instructions,instructions,172,418983,0.0-2.0,14,4,##########,db27f010085d4264f4e8a9fc114190a5,,"Mozilla/5.0 (Macintosh; Intel Mac OS X 10_15_7) AppleWebKit/537.36 (KHTML, like Gecko) Chrome/119.0.0.0 Safari/537.36",Macintosh,Chrome,119.0.0.0,OS X,10_15_7,https://eygklpxphg.cognition.run/?sona_id=13133,"en-US,en;q=0.9",13133,3126364268,,,,,,,,,,,,,,,,,,,,,,,,,,,
,20499,instructions,html-keyboard-response,173,439487,0.0-3.0-0.0,14,4,##########,db27f010085d4264f4e8a9fc114190a5,,"Mozilla/5.0 (Macintosh; Intel Mac OS X 10_15_7) AppleWebKit/537.36 (KHTML, like Gecko) Chrome/119.0.0.0 Safari/537.36",Macintosh,Chrome,119.0.0.0,OS X,10_15_7,https://eygklpxphg.cognition.run/?sona_id=13133,"en-US,en;q=0.9",13133,3126364268,"Put a left finger on the <b>A</b> key for items that belong to the category <b>Good</b>.<br>Put a right finger on the <b>L</b> key for items that belong to the category <b>Bad</b>.</br><br>Items will appear one at a time.</br><br>If you make a mistake, a red X (bold and red) will appear. Press the other key to continue.</br><br>Go as fast as you can while being accurate.</br><br></br> Pres the <b>space bar</b> when you are ready to start.",,,,,,,,,,,,,,,,,,,,,,,,,,
,2561,valence_iat,iat-html,174,442054,0.0-3.0-1.0-0.0,14,4,##########,db27f010085d4264f4e8a9fc114190a5,,"Mozilla/5.0 (Macintosh; Intel Mac OS X 10_15_7) AppleWebKit/537.36 (KHTML, like Gecko) Chrome/119.0.0.0 Safari/537.36",Macintosh,Chrome,119.0.0.0,OS X,10_15_7,https://eygklpxphg.cognition.run/?sona_id=13133,"en-US,en;q=0.9",13133,3126364268,funny,,a,,,,,,,,,,,TRUE,funny,TRUE,GOOD,BAD,positive valence,,,,,,,,
,1151,valence_iat,iat-html,175,443211,0.0-3.0-1.0-0.1,14,4,##########,db27f010085d4264f4e8a9fc114190a5,,"Mozilla/5.0 (Macintosh; Intel Mac OS X 10_15_7) AppleWebKit/537.36 (KHTML, like Gecko) Chrome/119.0.0.0 Safari/537.36",Macintosh,Chrome,119.0.0.0,OS X,10_15_7,https://eygklpxphg.cognition.run/?sona_id=13133,"en-US,en;q=0.9",13133,3126364268,sweet,,a,,,,,,,,,,,TRUE,sweet,TRUE,GOOD,BAD,positive valence,,,,,,,,
,1270,valence_iat,iat-html,176,444489,0.0-3.0-1.0-0.2,14,4,##########,db27f010085d4264f4e8a9fc114190a5,,"Mozilla/5.0 (Macintosh; Intel Mac OS X 10_15_7) AppleWebKit/537.36 (KHTML, like Gecko) Chrome/119.0.0.0 Safari/537.36",Macintosh,Chrome,119.0.0.0,OS X,10_15_7,https://eygklpxphg.cognition.run/?sona_id=13133,"en-US,en;q=0.9",13133,3126364268,friendly,,a,,,,,,,,,,,TRUE,friendly,TRUE,GOOD,BAD,positive valence,,,,,,,,
,845,valence_iat,iat-html,177,445340,0.0-3.0-1.0-0.3,14,4,##########,db27f010085d4264f4e8a9fc114190a5,,"Mozilla/5.0 (Macintosh; Intel Mac OS X 10_15_7) AppleWebKit/537.36 (KHTML, like Gecko) Chrome/119.0.0.0 Safari/537.36",Macintosh,Chrome,119.0.0.0,OS X,10_15_7,https://eygklpxphg.cognition.run/?sona_id=13133,"en-US,en;q=0.9",13133,3126364268,selfish,,l,,,,,,,,,,,TRUE,selfish,TRUE,GOOD,BAD,negative valence,,,,,,,,
,706,valence_iat,iat-html,178,446053,0.0-3.0-1.0-0.4,14,4,##########,db27f010085d4264f4e8a9fc114190a5,,"Mozilla/5.0 (Macintosh; Intel Mac OS X 10_15_7) AppleWebKit/537.36 (KHTML, like Gecko) Chrome/119.0.0.0 Safari/537.36",Macintosh,Chrome,119.0.0.0,OS X,10_15_7,https://eygklpxphg.cognition.run/?sona_id=13133,"en-US,en;q=0.9",13133,3126364268,boring,,l,,,,,,,,,,,TRUE,boring,TRUE,GOOD,BAD,negative valence,,,,,,,,
,599,valence_iat,iat-html,179,446659,0.0-3.0-1.0-0.5,14,4,##########,db27f010085d4264f4e8a9fc114190a5,,"Mozilla/5.0 (Macintosh; Intel Mac OS X 10_15_7) AppleWebKit/537.36 (KHTML, like Gecko) Chrome/119.0.0.0 Safari/537.36",Macintosh,Chrome,119.0.0.0,OS X,10_15_7,https://eygklpxphg.cognition.run/?sona_id=13133,"en-US,en;q=0.9",13133,3126364268,cruel,,l,,,,,,,,,,,TRUE,cruel,TRUE,GOOD,BAD,negative valence,,,,,,,,
,556,valence_iat,iat-html,180,447221,0.0-3.0-1.0-0.6,14,4,##########,db27f010085d4264f4e8a9fc114190a5,,"Mozilla/5.0 (Macintosh; Intel Mac OS X 10_15_7) AppleWebKit/537.36 (KHTML, like Gecko) Chrome/119.0.0.0 Safari/537.36",Macintosh,Chrome,119.0.0.0,OS X,10_15_7,https://eygklpxphg.cognition.run/?sona_id=13133,"en-US,en;q=0.9",13133,3126364268,mean,,l,,,,,,,,,,,TRUE,mean,TRUE,GOOD,BAD,negative valence,,,,,,,,
,603,valence_iat,iat-html,181,447830,0.0-3.0-1.0-0.7,14,4,##########,db27f010085d4264f4e8a9fc114190a5,,"Mozilla/5.0 (Macintosh; Intel Mac OS X 10_15_7) AppleWebKit/537.36 (KHTML, like Gecko) Chrome/119.0.0.0 Safari/537.36",Macintosh,Chrome,119.0.0.0,OS X,10_15_7,https://eygklpxphg.cognition.run/?sona_id=13133,"en-US,en;q=0.9",13133,3126364268,honest,,a,,,,,,,,,,,TRUE,honest,TRUE,GOOD,BAD,positive valence,,,,,,,,
,3444,instructions,html-keyboard-response,182,451281,0.0-4.0-0.0,14,4,##########,db27f010085d4264f4e8a9fc114190a5,,"Mozilla/5.0 (Macintosh; Intel Mac OS X 10_15_7) AppleWebKit/537.36 (KHTML, like Gecko) Chrome/119.0.0.0 Safari/537.36",Macintosh,Chrome,119.0.0.0,OS X,10_15_7,https://eygklpxphg.cognition.run/?sona_id=13133,"en-US,en;q=0.9",13133,3126364268,Put a left finger on the <b>A</b> key for items that belong to the category <b>Unfamiliar Pseudowords</b>. <br> Put a right finger on the <b>L</b> key for items that belong to the category <b>Familiar Pseudowords</b>.</br><br>Items will appear one at a time.</br> Go as fast as you can while being accurate.<br></br> Press the <b>space bar</b> when you are ready to start.,,,,,,,,,,,,,,,,,,,,,,,,,,
,2993,novel_iat,iat-html,183,454280,0.0-4.0-1.0-0.0,14,4,##########,db27f010085d4264f4e8a9fc114190a5,,"Mozilla/5.0 (Macintosh; Intel Mac OS X 10_15_7) AppleWebKit/537.36 (KHTML, like Gecko) Chrome/119.0.0.0 Safari/537.36",Macintosh,Chrome,119.0.0.0,OS X,10_15_7,https://eygklpxphg.cognition.run/?sona_id=13133,"en-US,en;q=0.9",13133,3126364268,wibb,,a,,,,,,,,,,,TRUE,wibb,TRUE,UNFAMILIAR,FAMILIAR,unfamiliar novel,,,,,,,,
,2118,novel_iat,iat-html,184,456404,0.0-4.0-1.0-0.1,14,4,##########,db27f010085d4264f4e8a9fc114190a5,,"Mozilla/5.0 (Macintosh; Intel Mac OS X 10_15_7) AppleWebKit/537.36 (KHTML, like Gecko) Chrome/119.0.0.0 Safari/537.36",Macintosh,Chrome,119.0.0.0,OS X,10_15_7,https://eygklpxphg.cognition.run/?sona_id=13133,"en-US,en;q=0.9",13133,3126364268,geck,,l,,,,,,,,,,,TRUE,geck,TRUE,UNFAMILIAR,FAMILIAR,familiar novel,,,,,,,,
,1265,novel_iat,iat-html,185,457674,0.0-4.0-1.0-0.2,14,4,##########,db27f010085d4264f4e8a9fc114190a5,,"Mozilla/5.0 (Macintosh; Intel Mac OS X 10_15_7) AppleWebKit/537.36 (KHTML, like Gecko) Chrome/119.0.0.0 Safari/537.36",Macintosh,Chrome,119.0.0.0,OS X,10_15_7,https://eygklpxphg.cognition.run/?sona_id=13133,"en-US,en;q=0.9",13133,3126364268,kiff,,a,,,,,,,,,,,TRUE,kiff,TRUE,UNFAMILIAR,FAMILIAR,unfamiliar novel,,,,,,,,
,1173,novel_iat,iat-html,186,458854,0.0-4.0-1.0-0.3,14,4,##########,db27f010085d4264f4e8a9fc114190a5,,"Mozilla/5.0 (Macintosh; Intel Mac OS X 10_15_7) AppleWebKit/537.36 (KHTML, like Gecko) Chrome/119.0.0.0 Safari/537.36",Macintosh,Chrome,119.0.0.0,OS X,10_15_7,https://eygklpxphg.cognition.run/?sona_id=13133,"en-US,en;q=0.9",13133,3126364268,hepp,,a,,,,,,,,,,,TRUE,hepp,TRUE,UNFAMILIAR,FAMILIAR,unfamiliar novel,,,,,,,,
,1138,novel_iat,iat-html,187,459998,0.0-4.0-1.0-0.4,14,4,##########,db27f010085d4264f4e8a9fc114190a5,,"Mozilla/5.0 (Macintosh; Intel Mac OS X 10_15_7) AppleWebKit/537.36 (KHTML, like Gecko) Chrome/119.0.0.0 Safari/537.36",Macintosh,Chrome,119.0.0.0,OS X,10_15_7,https://eygklpxphg.cognition.run/?sona_id=13133,"en-US,en;q=0.9",13133,3126364268,mipp,,l,,,,,,,,,,,TRUE,mipp,TRUE,UNFAMILIAR,FAMILIAR,familiar novel,,,,,,,,
,1309,novel_iat,iat-html,188,461312,0.0-4.0-1.0-0.5,14,4,##########,db27f010085d4264f4e8a9fc114190a5,,"Mozilla/5.0 (Macintosh; Intel Mac OS X 10_15_7) AppleWebKit/537.36 (KHTML, like Gecko) Chrome/119.0.0.0 Safari/537.36",Macintosh,Chrome,119.0.0.0,OS X,10_15_7,https://eygklpxphg.cognition.run/?sona_id=13133,"en-US,en;q=0.9",13133,3126364268,pimm,,a,,,,,,,,,,,TRUE,pimm,TRUE,UNFAMILIAR,FAMILIAR,unfamiliar novel,,,,,,,,
,931,novel_iat,iat-html,189,462249,0.0-4.0-1.0-0.6,14,4,##########,db27f010085d4264f4e8a9fc114190a5,,"Mozilla/5.0 (Macintosh; Intel Mac OS X 10_15_7) AppleWebKit/537.36 (KHTML, like Gecko) Chrome/119.0.0.0 Safari/537.36",Macintosh,Chrome,119.0.0.0,OS X,10_15_7,https://eygklpxphg.cognition.run/?sona_id=13133,"en-US,en;q=0.9",13133,3126364268,dodish,,l,,,,,,,,,,,TRUE,dodish,TRUE,UNFAMILIAR,FAMILIAR,familiar novel,,,,,,,,
,860,novel_iat,iat-html,190,463116,0.0-4.0-1.0-0.7,14,4,##########,db27f010085d4264f4e8a9fc114190a5,,"Mozilla/5.0 (Macintosh; Intel Mac OS X 10_15_7) AppleWebKit/537.36 (KHTML, like Gecko) Chrome/119.0.0.0 Safari/537.36",Macintosh,Chrome,119.0.0.0,OS X,10_15_7,https://eygklpxphg.cognition.run/?sona_id=13133,"en-US,en;q=0.9",13133,3126364268,foobly,,l,,,,,,,,,,,TRUE,foobly,TRUE,UNFAMILIAR,FAMILIAR,familiar novel,,,,,,,,
,1756,instructions,html-keyboard-response,191,464878,0.0-5.0-0.0-0.0,14,4,##########,db27f010085d4264f4e8a9fc114190a5,,"Mozilla/5.0 (Macintosh; Intel Mac OS X 10_15_7) AppleWebKit/537.36 (KHTML, like Gecko) Chrome/119.0.0.0 Safari/537.36",Macintosh,Chrome,119.0.0.0,OS X,10_15_7,https://eygklpxphg.cognition.run/?sona_id=13133,"en-US,en;q=0.9",13133,3126364268,Put a left finger on the <b>A</b> key for items that belong to the categories <b>Unfamiliar Pseudowords</b> OR <b>Good</b>.<br>Put a right finger on the <b>L</b> key for items that belong to the categories <b>Familiar Pseudowords</b> OR <b>Bad</b>.</br><br>Items will appear one at a time.</br> Go as fast as you can while being accurate.<br></br>Press the <b>space bar</b> when you are ready to start.,,,,,,,,,,,,,,,,,,,,,,,,,,
,4287,practice,iat-html,192,469171,0.0-5.0-0.0-1.0-0.0,14,4,##########,db27f010085d4264f4e8a9fc114190a5,,"Mozilla/5.0 (Macintosh; Intel Mac OS X 10_15_7) AppleWebKit/537.36 (KHTML, like Gecko) Chrome/119.0.0.0 Safari/537.36",Macintosh,Chrome,119.0.0.0,OS X,10_15_7,https://eygklpxphg.cognition.run/?sona_id=13133,"en-US,en;q=0.9",13133,3126364268,dodish,,l,,,,,,,,,,,TRUE,dodish,TRUE,UNFAMILIAR/GOOD,FAMILIAR/BAD,familiar novel,,,,,,,,
,2128,practice,iat-html,193,471305,0.0-5.0-0.0-1.0-0.1,14,4,##########,db27f010085d4264f4e8a9fc114190a5,,"Mozilla/5.0 (Macintosh; Intel Mac OS X 10_15_7) AppleWebKit/537.36 (KHTML, like Gecko) Chrome/119.0.0.0 Safari/537.36",Macintosh,Chrome,119.0.0.0,OS X,10_15_7,https://eygklpxphg.cognition.run/?sona_id=13133,"en-US,en;q=0.9",13133,3126364268,kiff,,a,,,,,,,,,,,TRUE,kiff,TRUE,UNFAMILIAR/GOOD,FAMILIAR/BAD,unfamiliar novel,,,,,,,,
,2029,practice,iat-html,194,473341,0.0-5.0-0.0-1.0-0.2,14,4,##########,db27f010085d4264f4e8a9fc114190a5,,"Mozilla/5.0 (Macintosh; Intel Mac OS X 10_15_7) AppleWebKit/537.36 (KHTML, like Gecko) Chrome/119.0.0.0 Safari/537.36",Macintosh,Chrome,119.0.0.0,OS X,10_15_7,https://eygklpxphg.cognition.run/?sona_id=13133,"en-US,en;q=0.9",13133,3126364268,funny,,a,,,,,,,,,,,TRUE,funny,TRUE,UNFAMILIAR/GOOD,FAMILIAR/BAD,positive valence,,,,,,,,
,1328,practice,iat-html,195,474674,0.0-5.0-0.0-1.0-0.3,14,4,##########,db27f010085d4264f4e8a9fc114190a5,,"Mozilla/5.0 (Macintosh; Intel Mac OS X 10_15_7) AppleWebKit/537.36 (KHTML, like Gecko) Chrome/119.0.0.0 Safari/537.36",Macintosh,Chrome,119.0.0.0,OS X,10_15_7,https://eygklpxphg.cognition.run/?sona_id=13133,"en-US,en;q=0.9",13133,3126364268,cruel,,l,,,,,,,,,,,TRUE,cruel,TRUE,UNFAMILIAR/GOOD,FAMILIAR/BAD,negative valence,,,,,,,,
,1957,practice,iat-html,196,476638,0.0-5.0-0.0-1.0-0.4,14,4,##########,db27f010085d4264f4e8a9fc114190a5,,"Mozilla/5.0 (Macintosh; Intel Mac OS X 10_15_7) AppleWebKit/537.36 (KHTML, like Gecko) Chrome/119.0.0.0 Safari/537.36",Macintosh,Chrome,119.0.0.0,OS X,10_15_7,https://eygklpxphg.cognition.run/?sona_id=13133,"en-US,en;q=0.9",13133,3126364268,foobly,,l,,,,,,,,,,,TRUE,foobly,TRUE,UNFAMILIAR/GOOD,FAMILIAR/BAD,familiar novel,,,,,,,,
,1164,practice,iat-html,197,477809,0.0-5.0-0.0-1.0-0.5,14,4,##########,db27f010085d4264f4e8a9fc114190a5,,"Mozilla/5.0 (Macintosh; Intel Mac OS X 10_15_7) AppleWebKit/537.36 (KHTML, like Gecko) Chrome/119.0.0.0 Safari/537.36",Macintosh,Chrome,119.0.0.0,OS X,10_15_7,https://eygklpxphg.cognition.run/?sona_id=13133,"en-US,en;q=0.9",13133,3126364268,geck,,l,,,,,,,,,,,TRUE,geck,TRUE,UNFAMILIAR/GOOD,FAMILIAR/BAD,familiar novel,,,,,,,,
,1255,practice,iat-html,198,479069,0.0-5.0-0.0-1.0-0.6,14,4,##########,db27f010085d4264f4e8a9fc114190a5,,"Mozilla/5.0 (Macintosh; Intel Mac OS X 10_15_7) AppleWebKit/537.36 (KHTML, like Gecko) Chrome/119.0.0.0 Safari/537.36",Macintosh,Chrome,119.0.0.0,OS X,10_15_7,https://eygklpxphg.cognition.run/?sona_id=13133,"en-US,en;q=0.9",13133,3126364268,pimm,,a,,,,,,,,,,,TRUE,pimm,TRUE,UNFAMILIAR/GOOD,FAMILIAR/BAD,unfamiliar novel,,,,,,,,
,1128,practice,iat-html,199,480203,0.0-5.0-0.0-1.0-0.7,14,4,##########,db27f010085d4264f4e8a9fc114190a5,,"Mozilla/5.0 (Macintosh; Intel Mac OS X 10_15_7) AppleWebKit/537.36 (KHTML, like Gecko) Chrome/119.0.0.0 Safari/537.36",Macintosh,Chrome,119.0.0.0,OS X,10_15_7,https://eygklpxphg.cognition.run/?sona_id=13133,"en-US,en;q=0.9",13133,3126364268,mipp,,l,,,,,,,,,,,TRUE,mipp,TRUE,UNFAMILIAR/GOOD,FAMILIAR/BAD,familiar novel,,,,,,,,
,1001,practice,iat-html,200,481209,0.0-5.0-0.0-1.0-0.8,14,4,##########,db27f010085d4264f4e8a9fc114190a5,,"Mozilla/5.0 (Macintosh; Intel Mac OS X 10_15_7) AppleWebKit/537.36 (KHTML, like Gecko) Chrome/119.0.0.0 Safari/537.36",Macintosh,Chrome,119.0.0.0,OS X,10_15_7,https://eygklpxphg.cognition.run/?sona_id=13133,"en-US,en;q=0.9",13133,3126364268,hepp,,a,,,,,,,,,,,TRUE,hepp,TRUE,UNFAMILIAR/GOOD,FAMILIAR/BAD,unfamiliar novel,,,,,,,,
,941,practice,iat-html,201,482156,0.0-5.0-0.0-1.0-0.9,14,4,##########,db27f010085d4264f4e8a9fc114190a5,,"Mozilla/5.0 (Macintosh; Intel Mac OS X 10_15_7) AppleWebKit/537.36 (KHTML, like Gecko) Chrome/119.0.0.0 Safari/537.36",Macintosh,Chrome,119.0.0.0,OS X,10_15_7,https://eygklpxphg.cognition.run/?sona_id=13133,"en-US,en;q=0.9",13133,3126364268,wibb,,a,,,,,,,,,,,TRUE,wibb,TRUE,UNFAMILIAR/GOOD,FAMILIAR/BAD,unfamiliar novel,,,,,,,,
,1417,practice,iat-html,202,483581,0.0-5.0-0.0-1.0-0.10,14,4,##########,db27f010085d4264f4e8a9fc114190a5,,"Mozilla/5.0 (Macintosh; Intel Mac OS X 10_15_7) AppleWebKit/537.36 (KHTML, like Gecko) Chrome/119.0.0.0 Safari/537.36",Macintosh,Chrome,119.0.0.0,OS X,10_15_7,https://eygklpxphg.cognition.run/?sona_id=13133,"en-US,en;q=0.9",13133,3126364268,mean,,l,,,,,,,,,,,TRUE,mean,TRUE,UNFAMILIAR/GOOD,FAMILIAR/BAD,negative valence,,,,,,,,
,907,practice,iat-html,203,484494,0.0-5.0-0.0-1.0-0.11,14,4,##########,db27f010085d4264f4e8a9fc114190a5,,"Mozilla/5.0 (Macintosh; Intel Mac OS X 10_15_7) AppleWebKit/537.36 (KHTML, like Gecko) Chrome/119.0.0.0 Safari/537.36",Macintosh,Chrome,119.0.0.0,OS X,10_15_7,https://eygklpxphg.cognition.run/?sona_id=13133,"en-US,en;q=0.9",13133,3126364268,friendly,,a,,,,,,,,,,,TRUE,friendly,TRUE,UNFAMILIAR/GOOD,FAMILIAR/BAD,positive valence,,,,,,,,
,984,practice,iat-html,204,485484,0.0-5.0-0.0-1.0-0.12,14,4,##########,db27f010085d4264f4e8a9fc114190a5,,"Mozilla/5.0 (Macintosh; Intel Mac OS X 10_15_7) AppleWebKit/537.36 (KHTML, like Gecko) Chrome/119.0.0.0 Safari/537.36",Macintosh,Chrome,119.0.0.0,OS X,10_15_7,https://eygklpxphg.cognition.run/?sona_id=13133,"en-US,en;q=0.9",13133,3126364268,boring,,l,,,,,,,,,,,TRUE,boring,TRUE,UNFAMILIAR/GOOD,FAMILIAR/BAD,negative valence,,,,,,,,
,813,practice,iat-html,205,486304,0.0-5.0-0.0-1.0-0.13,14,4,##########,db27f010085d4264f4e8a9fc114190a5,,"Mozilla/5.0 (Macintosh; Intel Mac OS X 10_15_7) AppleWebKit/537.36 (KHTML, like Gecko) Chrome/119.0.0.0 Safari/537.36",Macintosh,Chrome,119.0.0.0,OS X,10_15_7,https://eygklpxphg.cognition.run/?sona_id=13133,"en-US,en;q=0.9",13133,3126364268,honest,,a,,,,,,,,,,,TRUE,honest,TRUE,UNFAMILIAR/GOOD,FAMILIAR/BAD,positive valence,,,,,,,,
,931,practice,iat-html,206,487243,0.0-5.0-0.0-1.0-0.14,14,4,##########,db27f010085d4264f4e8a9fc114190a5,,"Mozilla/5.0 (Macintosh; Intel Mac OS X 10_15_7) AppleWebKit/537.36 (KHTML, like Gecko) Chrome/119.0.0.0 Safari/537.36",Macintosh,Chrome,119.0.0.0,OS X,10_15_7,https://eygklpxphg.cognition.run/?sona_id=13133,"en-US,en;q=0.9",13133,3126364268,sweet,,a,,,,,,,,,,,TRUE,sweet,TRUE,UNFAMILIAR/GOOD,FAMILIAR/BAD,positive valence,,,,,,,,
negative valence,1060,practice,iat-html,207,488310,0.0-5.0-0.0-1.0-0.15,14,4,##########,db27f010085d4264f4e8a9fc114190a5,,"Mozilla/5.0 (Macintosh; Intel Mac OS X 10_15_7) AppleWebKit/537.36 (KHTML, like Gecko) Chrome/119.0.0.0 Safari/537.36",Macintosh,Chrome,119.0.0.0,OS X,10_15_7,https://eygklpxphg.cognition.run/?sona_id=13133,"en-US,en;q=0.9",13133,3126364268,selfish,,l,,,,,,,,,,,TRUE,selfish,TRUE,UNFAMILIAR/GOOD,FAMILIAR/BAD,negative valence,,,,,,,,
positive valence,1306,instructions,html-keyboard-response,208,489622,0.0-5.0-1.0-0.0,14,4,##########,db27f010085d4264f4e8a9fc114190a5,,"Mozilla/5.0 (Macintosh; Intel Mac OS X 10_15_7) AppleWebKit/537.36 (KHTML, like Gecko) Chrome/119.0.0.0 Safari/537.36",Macintosh,Chrome,119.0.0.0,OS X,10_15_7,https://eygklpxphg.cognition.run/?sona_id=13133,"en-US,en;q=0.9",13133,3126364268,This is a repeat of the last trial. Put a left finger on the <b>A</b> key for items that belong to the categories <b>Unfamiliar Pseudowords</b> OR <b>Good</b> .<br> Put a right finger on the <b>L</b> key for items that belong to the categories <b>Familiar Pseudowords</b> OR <b>Bad</b>.</br><br>Items will appear one at a time.</br> Go as fast as you can while being accurate.<br></br> Press the <b>space bar</b> when you are ready to start.,,,,,,,,,,,,,,,,,,,,,,,,,,
positive valence,1243,incongruent_iat,iat-html,209,490871,0.0-5.0-1.0-1.0-0.0,14,4,##########,db27f010085d4264f4e8a9fc114190a5,,"Mozilla/5.0 (Macintosh; Intel Mac OS X 10_15_7) AppleWebKit/537.36 (KHTML, like Gecko) Chrome/119.0.0.0 Safari/537.36",Macintosh,Chrome,119.0.0.0,OS X,10_15_7,https://eygklpxphg.cognition.run/?sona_id=13133,"en-US,en;q=0.9",13133,3126364268,boring,,l,,,,,,,,,,,TRUE,boring,TRUE,UNFAMILIAR/GOOD,FAMILIAR/BAD,negative valence,,,,,,,,
